trial_num,fixcross_time,fixation_HZ,fixation_bin,fixation_regarded,start_time,Fstart_HZ,Fstart_bin,Fstart_regarded,stop_time,Fstop_HZ,Fstop_bin,Fstop_regarded,RT,boundary_type,stimuli_type,resp_value,old_new,accuracy,confidence,frameName,response_time,response_HZ,response_bin,response_regarded
1,1241.1388117499998,37234.164352499996,37234,1241.1333333333334,1241.688707,37250.66121,37250,1241.6666666666667,1243.2496475,37297.489425,37297,1243.2333333333333,1.1802172036259435,3,1,2,2,2,3,b'HB_4_frameB.png',1244.429864703626,37332.89594110878,37332,1244.4
2,1244.441339,37333.24017,37333,1244.4333333333334,1245.024553,37350.73659,37350,1245.0,1246.55932025,37396.7796075,37396,1246.5333333333333,1.3559646389912814,1,0,7,1,2,3,b'NB_18_frameB_foil.png',1247.9152848889912,37437.45854666974,37437,1247.9
3,1247.946439,37438.39317,37438,1247.9333333333334,1248.49632025,37454.8896075,37454,1248.4666666666667,1250.048421,37501.45263,37501,1250.0333333333333,1.7605947289266624,2,1,3,2,2,2,b'SB_7_frameA.png',1251.8090157289266,37554.2704718678,37554,1251.8
4,1251.8329475,37554.988425,37554,1251.8,1252.31614175,37569.4842525,37569,1252.3,1253.868005,37616.04015,37616,1253.8666666666666,1.4835296689416282,1,1,2,2,2,3,b'NB_5_frameB.png',1255.3515346689417,37660.54604006825,37660,1255.3333333333333
5,1255.3627525,37660.882574999996,37660,1255.3333333333333,1255.829319,37674.87957,37674,1255.8,1257.38488625,37721.54658749999,37721,1257.3666666666666,1.4182074317359366,1,0,7,1,2,3,b'NB_12_frameB_foil.png',1258.8030936817358,37764.09281045207,37764,1258.8
6,1258.8246465,37764.739395,37764,1258.8,1259.40783275,37782.2349825,37782,1259.4,1260.94221775,37828.2665325,37828,1260.9333333333334,1.448070318554528,3,0,7,1,2,3,b'HB_2_frameB_foil.png',1262.3902880685546,37871.708642056634,37871,1262.3666666666666
7,1262.3991475,37871.974425,37871,1262.3666666666666,1262.9823495,37889.470485,37889,1262.9666666666667,1264.5172355,37935.517065,37935,1264.5,1.2479075385490432,2,1,3,2,2,2,b'SB_1_frameA.png',1265.765143038549,37972.95429115647,37972,1265.7333333333333
8,1265.77875675,37973.3627025,37973,1265.7666666666667,1266.36197675,37990.8593025,37990,1266.3333333333333,1267.895793,38036.87379,38036,1267.8666666666666,1.458908534492366,2,1,4,2,2,1,b'SB_5_frameA.png',1269.3547015344923,38080.64104603477,38080,1269.3333333333333
9,1269.36540375,38080.9621125,38080,1269.3333333333333,1269.88196275,38096.458882499996,38096,1269.8666666666666,1271.4153872499999,38142.4616175,38142,1271.4,1.6930582477943972,2,1,3,2,2,2,b'SB_2_frameB.png',1273.1084454977943,38193.25336493383,38193,1273.1
10,1273.11632225,38193.4896675,38193,1273.1,1273.5995142499999,38207.985427499996,38207,1273.5666666666666,1275.1335655,38254.006965,38254,1275.1333333333334,1.099682079453487,3,1,3,2,2,2,b'HB_3_frameA.png',1276.2332475794535,38286.997427383605,38286,1276.2
11,1276.2385205,38287.155615,38287,1276.2333333333333,1276.721749,38301.65247,38301,1276.7,1278.25526825,38347.6580475,38347,1278.2333333333333,1.392863592831418,3,1,3,2,2,2,b'HB_5_frameA.png',1279.6481318428314,38389.44395528494,38389,1279.6333333333334
12,1279.6574732499998,38389.72419749999,38389,1279.6333333333334,1280.1906425,38405.719274999996,38405,1280.1666666666667,1281.725439,38451.76317,38451,1281.7,1.435208054841496,1,0,7,1,2,3,b'NB_9_frameA_foil.png',1283.1606470548415,38494.81941164524,38494,1283.1333333333334
13,1283.1789092499998,38495.367277499994,38495,1283.1666666666667,1283.695469,38510.86407,38510,1283.6666666666667,1285.22906675,38556.8720025,38556,1285.2,1.7244271907838993,3,1,2,2,2,3,b'HB_2_frameA.png',1286.9534939407838,38608.60481822352,38608,1286.9333333333334
14,1286.964556,38608.93668,38608,1286.9333333333334,1287.4644295,38623.932885,38623,1287.4333333333334,1288.9991364999998,38669.974095,38669,1288.9666666666667,1.4937584606232122,1,0,7,1,2,3,b'NB_17_frameA_foil.png',1290.492894960623,38714.786848818694,38714,1290.4666666666667
15,1290.50147825,38715.0443475,38715,1290.5,1291.01804825,38730.5414475,38730,1291.0,1292.55274825,38776.5824475,38776,1292.5333333333333,1.314933143730741,1,0,6,1,2,2,b'NB_2_frameB_foil.png',1293.8676813937307,38816.03044181192,38816,1293.8666666666666
16,1293.883533,38816.50599,38816,1293.8666666666666,1294.3667692499998,38831.0030775,38831,1294.3666666666666,1295.90106275,38877.0318825,38877,1295.9,1.471060101117473,2,0,5,1,2,1,b'SB_1_frameB_foil.png',1297.3721228511174,38921.163685533524,38921,1297.3666666666666
17,1297.38347875,38921.504362499996,38921,1297.3666666666666,1297.9167115,38937.501345,38937,1297.9,1299.4512365,38983.537095,38983,1299.4333333333334,1.6039101661881432,2,0,6,1,2,2,b'SB_2_frameB_foil.png',1301.0551466661882,39031.654399985644,39031,1301.0333333333333
18,1301.073034,39032.19102,39032,1301.0666666666666,1301.5729254999999,39047.187764999995,39047,1301.5666666666666,1303.10717075,39093.2151225,39093,1303.1,1.1466876302147284,2,1,3,2,2,2,b'SB_8_frameA.png',1304.2538583802148,39127.61575140644,39127,1304.2333333333333
19,1304.26809375,39128.042812499996,39128,1304.2666666666667,1304.73466775,39142.0400325,39142,1304.7333333333333,1306.26836125,39188.0508375,39188,1306.2666666666667,1.3928180923103355,3,1,2,2,2,3,b'HB_5_frameB.png',1307.6611793423103,39229.83538026931,39229,1307.6333333333334
20,1307.67843275,39230.3529825,39230,1307.6666666666667,1308.2283029999999,39246.849089999996,39246,1308.2,1309.762937,39292.88811,39292,1309.7333333333333,1.5444682681700215,2,0,6,1,2,2,b'SB_9_frameA_foil.png',1311.30740526817,39339.2221580451,39339,1311.3
21,1311.31802825,39339.5408475,39339,1311.3,1311.78460225,39353.5380675,39353,1311.7666666666667,1313.3194067499999,39399.582202499994,39399,1313.3,1.8051747977733612,3,0,6,1,2,2,b'HB_6_frameB_foil.png',1315.1245815477732,39453.737446433195,39453,1315.1
22,1315.13243425,39453.9730275,39453,1315.1,1315.59899925,39467.9699775,39467,1315.5666666666666,1317.133846,39514.01538,39514,1317.1333333333334,1.2605476833996363,3,1,2,2,2,3,b'HB_1_frameA.png',1318.3943936833996,39551.831810501986,39551,1318.3666666666666
23,1318.399379,39551.98137,39551,1318.3666666666666,1318.93260375,39567.9781125,39567,1318.9,1320.4668155,39614.004465,39614,1320.4666666666667,1.5619269207236357,3,0,7,1,2,3,b'HB_4_frameA_foil.png',1322.0287424207236,39660.86227262171,39660,1322.0
24,1322.0384199999999,39661.152599999994,39661,1322.0333333333333,1322.6383027499999,39679.14908249999,39679,1322.6333333333334,1324.172255,39725.167649999996,39725,1324.1666666666667,1.692915594088845,2,0,6,1,2,2,b'SB_5_frameA_foil.png',1325.8651705940888,39775.95511782266,39775,1325.8333333333333
25,1325.8821329999998,39776.46399,39776,1325.8666666666666,1326.48201475,39794.4604425,39794,1326.4666666666667,1328.016966,39840.50898,39840,1328.0,1.3032799701904878,1,1,2,2,2,3,b'NB_16_frameA.png',1329.3202459701904,39879.60737910571,39879,1329.3
26,1329.32838275,39879.8514825,39879,1329.3,1329.7949549999998,39893.84864999999,39893,1329.7666666666667,1331.32962925,39939.888877499994,39939,1331.3,1.0213591809151694,2,0,5,1,2,1,b'SB_5_frameB_foil.png',1332.350988430915,39970.52965292745,39970,1332.3333333333333
27,1332.3541954999998,39970.625864999995,39970,1332.3333333333333,1332.8707505,39986.122515,39986,1332.8666666666666,1334.40443725,40032.1331175,40032,1334.4,1.4263854853925295,2,0,5,1,2,1,b'SB_8_frameA_foil.png',1335.8308227353925,40074.92468206178,40074,1335.8
28,1335.85172275,40075.551682499994,40075,1335.8333333333333,1336.35160725,40090.5482175,40090,1336.3333333333333,1337.8855495,40136.566485,40136,1337.8666666666666,1.2207829797407612,2,1,2,2,2,3,b'SB_8_frameB.png',1339.1063324797408,40173.189974392226,40173,1339.1
29,1339.1149309999998,40173.447929999995,40173,1339.1,1339.581373,40187.44119,40187,1339.5666666666666,1341.116214,40233.486419999994,40233,1341.1,1.4394646439468488,1,0,7,1,2,3,b'NB_22_frameB_foil.png',1342.5556786439467,40276.6703593184,40276,1342.5333333333333
30,1342.5607089999999,40276.82126999999,40276,1342.5333333333333,1343.1105862499999,40293.317587499994,40293,1343.1,1344.6453709999998,40339.36113,40339,1344.6333333333334,1.2658375712344423,2,0,7,1,2,3,b'SB_2_frameB_foil.png',1345.9112085712343,40377.33625713703,40377,1345.9
31,1345.92012175,40377.603652499994,40377,1345.9,1346.453345,40393.60034999999,40393,1346.4333333333334,1347.9876285,40439.628855,40439,1347.9666666666667,1.5937889619381167,2,1,2,2,2,3,b'SB_3_frameA.png',1349.5814174619381,40487.442523858146,40487,1349.5666666666666
32,1349.592854,40487.78562,40487,1349.5666666666666,1350.1760629999999,40505.28189,40505,1350.1666666666667,1351.7103607499998,40551.310822499996,40551,1351.7,1.6942975062993355,2,0,5,1,2,1,b'SB_7_frameB_foil.png',1353.4046582562992,40602.139747688976,40602,1353.4
33,1353.42072725,40602.6218175,40602,1353.4,1353.9206347499999,40617.619042499995,40617,1353.9,1355.45497,40663.6491,40663,1355.4333333333334,1.2967363098287024,1,0,7,1,2,3,b'NB_6_frameB_foil.png',1356.7517063098287,40702.55118929486,40702,1356.7333333333333
34,1356.7623915,40702.871745,40702,1356.7333333333333,1357.32893625,40719.8680875,40719,1357.3,1358.86314025,40765.8942075,40765,1358.8333333333333,1.431676023057662,2,0,7,1,2,3,b'SB_2_frameB_foil.png',1360.2948162730577,40808.84448819173,40808,1360.2666666666667
35,1360.3143115,40809.429345000004,40809,1360.3,1360.78085175,40823.4255525,40823,1360.7666666666667,1362.31483775,40869.4451325,40869,1362.3,1.527302154689096,3,1,3,2,2,2,b'HB_3_frameA.png',1363.842139904689,40915.26419714067,40915,1363.8333333333333
36,1363.8625885,40915.877655,40915,1363.8333333333333,1364.36248,40930.8744,40930,1364.3333333333333,1365.89720425,40976.9161275,40976,1365.8666666666666,1.3690856520552188,2,0,7,1,2,3,b'SB_9_frameB_foil.png',1367.2662899020552,41017.98869706166,41017,1367.2333333333333
37,1367.277785,41018.33355,41018,1367.2666666666667,1367.7276865,41031.830595,41031,1367.7,1369.26129825,41077.8389475,41077,1369.2333333333333,1.525632735574618,1,1,3,2,2,2,b'NB_30_frameA.png',1370.7869309855746,41123.60792956724,41123,1370.7666666666667
38,1370.7970249999998,41123.910749999995,41123,1370.7666666666667,1371.280257,41138.40771,41138,1371.2666666666667,1372.81461475,41184.438442499995,41184,1372.8,0.9700358515256085,3,0,7,1,2,3,b'HB_3_frameB_foil.png',1373.7846506015255,41213.53951804576,41213,1373.7666666666667
39,1373.8015922499999,41214.0477675,41214,1373.8,1374.26815775,41228.0447325,41228,1374.2666666666667,1375.802358,41274.070739999996,41274,1375.8,1.2529101332766004,3,0,7,1,2,3,b'HB_7_frameA_foil.png',1377.0552681332765,41311.65804399829,41311,1377.0333333333333
40,1377.06899,41312.0697,41312,1377.0666666666666,1377.568891,41327.06673,41327,1377.5666666666666,1379.10263525,41373.0790575,41373,1379.1,1.422885508975014,1,1,2,2,2,3,b'NB_9_frameB.png',1380.525520758975,41415.76562276925,41415,1380.5
41,1380.5474367499999,41416.4231025,41416,1380.5333333333333,1381.08064225,41432.4192675,41432,1381.0666666666666,1382.615627,41478.46881,41478,1382.6,1.8381636135745794,2,0,7,1,2,3,b'SB_1_frameB_foil.png',1384.4537906135745,41533.613718407236,41533,1384.4333333333334
42,1384.456488,41533.69464,41533,1384.4333333333334,1384.98970525,41549.6911575,41549,1384.9666666666667,1386.52345225,41595.7035675,41595,1386.5,1.4565974663128145,2,0,5,1,2,1,b'SB_1_frameA_foil.png',1387.9800497163128,41639.401491489385,41639,1387.9666666666667
43,1387.98498,41639.549399999996,41639,1387.9666666666667,1388.48487475,41654.5462425,41654,1388.4666666666667,1390.01872675,41700.5618025,41700,1390.0,1.5509065172518604,2,1,2,2,2,3,b'SB_5_frameB.png',1391.569633267252,41747.088998017556,41747,1391.5666666666666
44,1391.58622575,41747.5867725,41747,1391.5666666666666,1392.0861335,41762.584005,41762,1392.0666666666666,1393.62010175,41808.6030525,41808,1393.6,1.4036978326039389,2,1,4,2,2,1,b'SB_6_frameB.png',1395.023799582604,41850.71398747812,41850,1395.0
45,1395.03461875,41851.0385625,41851,1395.0333333333333,1395.55117875,41866.5353625,41866,1395.5333333333333,1397.08546475,41912.5639425,41912,1397.0666666666666,1.3031385221984237,1,1,3,2,2,2,b'NB_22_frameA.png',1398.3886032721985,41951.65809816595,41951,1398.3666666666666
46,1398.4078037499999,41952.234112499995,41952,1398.4,1398.9243555,41967.730665,41967,1398.9,1400.4578797499998,42013.736392499995,42013,1400.4333333333334,1.5765115348040126,2,1,2,2,2,3,b'SB_2_frameB.png',1402.0343912848039,42061.031738544116,42061,1402.0333333333333
47,1402.0489109999999,42061.46733,42061,1402.0333333333333,1402.515487,42075.464609999995,42075,1402.5,1404.05003625,42121.5010875,42121,1404.0333333333333,1.2270476343110204,2,0,5,1,2,1,b'SB_6_frameA_foil.png',1405.277083884311,42158.31251652933,42158,1405.2666666666667
48,1405.281234,42158.43702,42158,1405.2666666666667,1405.7644135,42172.932405,42172,1405.7333333333333,1407.2990977499999,42218.97293249999,42218,1407.2666666666667,1.4783573038876057,2,1,3,2,2,2,b'SB_4_frameA.png',1408.7774550538875,42263.32365161662,42263,1408.7666666666667
49,1408.789442,42263.68326,42263,1408.7666666666667,1409.4059814999998,42282.179444999994,42282,1409.4,1410.939601,42328.188030000005,42328,1410.9333333333334,1.7446687513729557,3,1,2,2,2,3,b'HB_3_frameB.png',1412.684269751373,42380.52809254119,42380,1412.6666666666667
50,1412.68753625,42380.6260875,42380,1412.6666666666667,1413.23741325,42397.122397499996,42397,1413.2333333333333,1414.7711585,42443.134755,42443,1414.7666666666667,1.054535546572879,3,0,7,1,2,3,b'HB_1_frameB_foil.png',1415.8256940465728,42474.770821397186,42474,1415.8
51,1415.8427675,42475.283025000004,42475,1415.8333333333333,1416.375992,42491.27976,42491,1416.3666666666666,1417.909477,42537.284309999995,42537,1417.9,1.2950329042505473,2,0,6,1,2,2,b'SB_8_frameB_foil.png',1419.2045099042505,42576.13529712751,42576,1419.2
52,1419.2110882499999,42576.3326475,42576,1419.2,1419.6943239999998,42590.829719999994,42590,1419.6666666666667,1421.229098,42636.87294,42636,1421.2,1.3716411780915223,3,0,7,1,2,3,b'HB_2_frameB_foil.png',1422.6007391780915,42678.02217534275,42678,1422.6
53,1422.6151049999999,42678.453149999994,42678,1422.6,1423.09822375,42692.9467125,42692,1423.0666666666666,1424.63275725,42738.982717499995,42738,1424.6,1.3236917431931943,1,1,2,2,2,3,b'NB_2_frameA.png',1425.9564489931931,42778.69346979579,42778,1425.9333333333334
54,1425.9602204999999,42778.806614999994,42778,1425.9333333333334,1426.44346275,42793.3038825,42793,1426.4333333333334,1427.9772169999999,42839.31651,42839,1427.9666666666667,1.393950939644128,1,0,3,2,1,2,b'NB_19_frameA_foil.png',1429.371167939644,42881.13503818932,42881,1429.3666666666666
55,1429.38374175,42881.5122525,42881,1429.3666666666666,1429.93362575,42898.0087725,42898,1429.9333333333334,1431.46834875,42944.050462499996,42944,1431.4666666666667,1.1072092768154107,3,0,2,2,1,3,b'HB_3_frameB_foil.png',1432.5755580268153,42977.26674080446,42977,1432.5666666666666
56,1432.5853097499999,42977.559292499995,42977,1432.5666666666666,1433.168526,42995.055779999995,42995,1433.1666666666667,1434.7032789999998,43041.09836999999,43041,1434.7,1.1055177390226163,3,1,2,2,2,3,b'HB_1_frameB.png',1435.8087967390225,43074.26390217067,43074,1435.8
57,1435.82098025,43074.629407500004,43074,1435.8,1436.28755275,43088.6265825,43088,1436.2666666666667,1437.8211287499998,43134.63386249999,43134,1437.8,1.1242144624120556,3,0,7,1,2,3,b'HB_4_frameB_foil.png',1438.945343212412,43168.36029637235,43168,1438.9333333333334
58,1438.95284,43168.5852,43168,1438.9333333333334,1439.53606,43186.0818,43186,1439.5333333333333,1441.07070075,43232.1210225,43232,1441.0666666666666,1.4352805055095814,2,1,2,2,2,3,b'SB_1_frameA.png',1442.5059812555096,43275.17943766529,43275,1442.5
59,1442.5160449999998,43275.481349999995,43275,1442.5,1443.01593325,43290.4779975,43290,1443.0,1444.5496624999998,43336.48987499999,43336,1444.5333333333333,1.4089402624522336,1,0,6,1,2,2,b'NB_7_frameA_foil.png',1445.958602762452,43378.75808287356,43378,1445.9333333333334
60,1445.9735425,43379.206275,43379,1445.9666666666667,1446.52342375,43395.702712499995,43395,1446.5,1448.05751925,43441.7255775,43441,1448.0333333333333,1.6861202088184655,3,1,7,1,1,3,b'HB_2_frameA.png',1449.7436394588185,43492.309183764555,43492,1449.7333333333333
61,1449.759388,43492.78164,43492,1449.7333333333333,1450.292761,43508.78283,43508,1450.2666666666667,1451.8276274999998,43554.828825,43554,1451.8,1.4231145101366565,3,0,6,1,2,2,b'HB_1_frameA_foil.png',1453.2507420101365,43597.5222603041,43597,1453.2333333333333
62,1453.25819775,43597.745932499995,43597,1453.2333333333333,1453.7414294999999,43612.242885,43612,1453.7333333333333,1455.275248,43658.25744,43658,1455.2666666666667,1.4446832688408904,1,0,2,2,1,3,b'NB_4_frameB_foil.png',1456.7199312688408,43701.59793806523,43701,1456.7
63,1456.72892375,43701.867712499996,43701,1456.7,1457.2287935,43716.863805,43716,1457.2,1458.76349,43762.9047,43762,1458.7333333333333,1.6133239876944572,2,1,4,2,2,1,b'SB_4_frameB.png',1460.3768139876945,43811.30441963083,43811,1460.3666666666666
64,1460.3944609999999,43811.833829999996,43811,1460.3666666666666,1460.9776705,43829.330115,43829,1460.9666666666667,1462.512291,43875.36873,43875,1462.5,1.5415024120011367,3,0,7,1,2,3,b'HB_1_frameA_foil.png',1464.0537934120011,43921.613802360036,43921,1464.0333333333333
65,1464.06182275,43921.854682499994,43921,1464.0333333333333,1464.6450364999998,43939.351095,43939,1464.6333333333334,1466.1797055,43985.391165,43985,1466.1666666666667,1.3796768510364927,1,1,3,2,2,2,b'NB_15_frameB.png',1467.5593823510364,44026.781470531096,44026,1467.5333333333333
66,1467.564349,44026.93047,44026,1467.5333333333333,1468.0309324999998,44040.927975,44040,1468.0,1469.565275,44086.958249999996,44086,1469.5333333333333,1.8699045469402336,2,1,7,1,1,3,b'SB_6_frameA.png',1471.4351795469402,44143.0553864082,44143,1471.4333333333334
67,1471.4549405,44143.648215,44143,1471.4333333333334,1472.0381535,44161.144604999994,44161,1472.0333333333333,1473.57268875,44207.1806625,44207,1473.5666666666666,1.3826600658940151,2,0,7,1,2,3,b'SB_4_frameA_foil.png',1474.955348815894,44248.66046447682,44248,1474.9333333333334
68,1474.96105175,44248.8315525,44248,1474.9333333333334,1475.444301,44263.32903,44263,1475.4333333333334,1476.9792505,44309.377515,44309,1476.9666666666667,1.5817499535041861,2,0,7,1,2,3,b'SB_4_frameA_foil.png',1478.5610004535042,44356.830013605126,44356,1478.5333333333333
69,1478.57120025,44357.1360075,44357,1478.5666666666666,1479.1044112499999,44373.1323375,44373,1479.1,1480.63862875,44419.1588625,44419,1480.6333333333334,1.273375516931992,1,0,2,2,1,3,b'NB_15_frameA_foil.png',1481.912004266932,44457.36012800796,44457,1481.9
70,1481.925689,44457.77067,44457,1481.9,1482.4589154999999,44473.767465,44473,1482.4333333333334,1483.9925887499999,44519.7776625,44519,1483.9666666666667,1.2421801630989648,3,0,7,1,2,3,b'HB_2_frameB_foil.png',1485.2347689130988,44557.043067392966,44557,1485.2333333333333
71,1485.2461895,44557.385684999994,44557,1485.2333333333333,1485.7127755,44571.383265,44571,1485.7,1487.2476265,44617.428795,44617,1487.2333333333333,1.3816469281446189,2,1,5,1,1,1,b'SB_6_frameB.png',1488.6292734281446,44658.87820284434,44658,1488.6
72,1488.64179275,44659.253782499996,44659,1488.6333333333334,1489.17501875,44675.2505625,44675,1489.1666666666667,1490.7095957499998,44721.2878725,44721,1490.7,1.38085586798843,3,1,2,2,2,3,b'HB_8_frameB.png',1492.0904516179883,44762.71354853965,44762,1492.0666666666666
73,1492.11080125,44763.324037499995,44763,1492.1,1492.5773745,44777.321234999996,44777,1492.5666666666666,1494.1123612499998,44823.37083749999,44823,1494.1,1.4920735731720924,2,1,2,2,2,3,b'SB_9_frameB.png',1495.604434823172,44868.133044695154,44868,1495.6
74,1495.6144335,44868.433005,44868,1495.6,1496.1643235,44884.929704999995,44884,1496.1333333333334,1497.6979442499999,44930.93832749999,44930,1497.6666666666667,1.6905765271512792,3,0,7,1,2,3,b'HB_1_frameA_foil.png',1499.3885207771511,44981.65562331453,44981,1499.3666666666666
75,1499.4070629999999,44982.21189,44982,1499.4,1499.87363625,44996.2090875,44996,1499.8666666666666,1501.40772675,45042.2318025,45042,1501.4,2.0362520827911794,2,1,2,2,2,3,b'SB_3_frameB.png',1503.4439788327911,45103.319364983734,45103,1503.4333333333334
76,1503.46149875,45103.8449625,45103,1503.4333333333334,1504.01139225,45120.3417675,45120,1504.0,1505.54598275,45166.37948249999,45166,1505.5333333333333,1.0063237260328606,3,1,2,2,2,3,b'HB_5_frameA.png',1506.5523064760328,45196.56919428098,45196,1506.5333333333333
77,1506.56105175,45196.8315525,45196,1506.5333333333333,1507.110941,45213.32823,45213,1507.1,1508.64553375,45259.366012499995,45259,1508.6333333333334,1.3603090055985376,1,1,2,2,2,3,b'NB_12_frameA.png',1510.0058427555985,45300.17528266795,45300,1510.0
78,1510.02408025,45300.7224075,45300,1510.0,1510.59063625,45317.7190875,45317,1510.5666666666666,1512.12531575,45363.7594725,45363,1512.1,1.5106395430047996,2,0,6,1,2,2,b'SB_6_frameA_foil.png',1513.6359552930048,45409.078658790146,45409,1513.6333333333334
79,1513.6451009999998,45409.35303,45409,1513.6333333333334,1514.11163425,45423.3490275,45423,1514.1,1515.64636725,45469.3910175,45469,1515.6333333333334,1.176694713474717,3,1,2,2,2,3,b'HB_4_frameB.png',1516.8230619634746,45504.69185890424,45504,1516.8
80,1516.84300375,45505.2901125,45505,1516.8333333333333,1517.4428805,45523.286415,45523,1517.4333333333334,1518.9769677499999,45569.309032499994,45569,1518.9666666666667,1.7497121764463373,3,1,2,2,2,3,b'HB_2_frameA.png',1520.7266799264462,45621.800397793384,45621,1520.7
81,1520.736253,45622.08759,45622,1520.7333333333333,1521.2861435,45638.584305,45638,1521.2666666666667,1522.81982725,45684.594817499994,45684,1522.8,1.9667489901185036,3,0,7,1,2,3,b'HB_5_frameB_foil.png',1524.7865762401184,45743.59728720355,45743,1524.7666666666667
82,1524.798618,45743.95854,45743,1524.7666666666667,1525.3485065,45760.455195,45760,1525.3333333333333,1526.8823519999999,45806.470559999994,45806,1526.8666666666666,1.2324560299166478,1,1,7,1,1,3,b'NB_3_frameB.png',1528.1148080299165,45843.444240897494,45843,1528.1
83,1528.1337735,45844.013204999996,45844,1528.1333333333334,1528.6003395,45858.010185,45858,1528.6,1530.134394,45904.03182,45904,1530.1333333333334,1.3982150269439444,1,1,7,1,1,3,b'NB_18_frameA.png',1531.5326090269439,45945.978270808315,45945,1531.5
84,1531.5356992499999,45946.0709775,45946,1531.5333333333333,1532.00224525,45960.0673575,45960,1532.0,1533.53593725,46006.0781175,46006,1533.5333333333333,1.3978889475110918,1,0,5,1,2,1,b'NB_10_frameB_foil.png',1534.933826197511,46048.014785925334,46048,1534.9333333333334
85,1534.94246525,46048.2739575,46048,1534.9333333333334,1535.392345,46061.77035,46061,1535.3666666666666,1536.92674275,46107.80228249999,46107,1536.9,1.3645097882836126,1,0,5,1,2,1,b'NB_13_frameA_foil.png',1538.2912525382835,46148.7375761485,46148,1538.2666666666667
86,1538.30517375,46149.1552125,46149,1538.3,1538.82173425,46164.6520275,46164,1538.8,1540.3555299999998,46210.66589999999,46210,1540.3333333333333,1.3533806765917689,2,0,5,1,2,1,b'SB_7_frameA_foil.png',1541.7089106765916,46251.267320297746,46251,1541.7
87,1541.7254635,46251.763905,46251,1541.7,1542.24202775,46267.260832500004,46267,1542.2333333333333,1543.77601125,46313.2803375,46313,1543.7666666666667,1.2803597190068103,1,1,7,1,1,3,b'NB_26_frameA.png',1545.0563709690068,46351.691129070205,46351,1545.0333333333333
88,1545.0645769999999,46351.937309999994,46351,1545.0333333333333,1545.56448725,46366.934617499996,46366,1545.5333333333333,1547.0986249999999,46412.95875,46412,1547.0666666666666,1.4529016343294643,1,0,5,1,2,1,b'NB_23_frameA_foil.png',1548.5515266343293,46456.54579902988,46456,1548.5333333333333
89,1548.55526575,46456.6579725,46456,1548.5333333333333,1549.0551544999998,46471.654635,46471,1549.0333333333333,1550.5897929999999,46517.69379,46517,1550.5666666666666,1.6765104432124645,2,0,2,2,1,3,b'SB_1_frameB_foil.png',1552.2663034432123,46567.98910329637,46567,1552.2333333333333
90,1552.2807787499999,46568.4233625,46568,1552.2666666666667,1552.7806692499998,46583.42007749999,46583,1552.7666666666667,1554.3149752499999,46629.4492575,46629,1554.3,1.4305208257283084,1,0,6,1,2,2,b'NB_14_frameB_foil.png',1555.7454960757282,46672.364882271846,46672,1555.7333333333333
91,1555.760746,46672.82238,46672,1555.7333333333333,1556.260658,46687.81974,46687,1556.2333333333333,1557.79447775,46733.834332499995,46733,1557.7666666666667,1.142980337201152,3,0,2,2,1,3,b'HB_2_frameA_foil.png',1558.937458087201,46768.12374261603,46768,1558.9333333333334
92,1558.94367625,46768.3102875,46768,1558.9333333333334,1559.426918,46782.807539999994,46782,1559.4,1560.9617005,46828.851015,46828,1560.9333333333334,1.5624855145579204,3,0,2,2,1,3,b'HB_8_frameA_foil.png',1562.524186014558,46875.72558043674,46875,1562.5
93,1562.5426745,46876.280235,46876,1562.5333333333333,1563.125888,46893.776640000004,46893,1563.1,1564.659942,46939.79826,46939,1564.6333333333334,1.2971411562757567,1,1,2,2,2,3,b'NB_21_frameB.png',1565.9570831562758,46978.712494688276,46978,1565.9333333333334
94,1565.966487,46978.994609999994,46978,1565.9333333333334,1566.4663859999998,46993.991579999994,46993,1566.4333333333334,1567.999924,47039.99772,47039,1567.9666666666667,1.6608684411039576,2,1,2,2,2,3,b'SB_1_frameB.png',1569.660792441104,47089.82377323312,47089,1569.6333333333334
95,1569.6800385,47090.401155,47090,1569.6666666666667,1570.17992575,47105.3977725,47105,1570.1666666666667,1571.71469325,47151.4407975,47151,1571.7,1.2482990255230106,1,0,6,1,2,2,b'NB_3_frameA_foil.png',1572.962992275523,47188.88976826569,47188,1572.9333333333334
96,1572.975561,47189.26683,47189,1572.9666666666667,1573.4421137499999,47203.2634125,47203,1573.4333333333334,1574.97677925,47249.3033775,47249,1574.9666666666667,1.1665279516018927,2,1,6,1,1,2,b'SB_1_frameA.png',1576.1433072016018,47284.29921604806,47284,1576.1333333333334
97,1576.15320475,47284.5961425,47284,1576.1333333333334,1576.75307725,47302.5923175,47302,1576.7333333333333,1578.2869497499998,47348.608492499996,47348,1578.2666666666667,1.4318011048599146,1,0,2,2,1,3,b'NB_26_frameB_foil.png',1579.7187508548598,47391.56252564579,47391,1579.7
98,1579.72104675,47391.631402499996,47391,1579.7,1580.2209575,47406.628724999995,47406,1580.2,1581.755898,47452.67694,47452,1581.7333333333333,1.3446637281449512,2,1,7,1,1,3,b'SB_7_frameB.png',1583.1005617281448,47493.016851844346,47493,1583.1
99,1583.12182025,47493.6546075,47493,1583.1,1583.70503975,47511.1511925,47511,1583.7,1585.2390885,47557.172655,47557,1585.2333333333333,1.4007490167859942,1,0,7,1,2,3,b'NB_24_frameB_foil.png',1586.639837516786,47599.19512550358,47599,1586.6333333333334
100,1586.65205875,47599.5617625,47599,1586.6333333333334,1587.15194875,47614.5584625,47614,1587.1333333333334,1588.68563875,47660.569162499996,47660,1588.6666666666667,1.3558189413743094,1,1,3,2,2,2,b'NB_20_frameA.png',1590.0414576913743,47701.243730741226,47701,1590.0333333333333
101,1590.0441425,47701.324275,47701,1590.0333333333333,1590.59404525,47717.8213575,47717,1590.5666666666666,1592.1288745,47763.866235,47763,1592.1,1.383473606838379,2,0,3,2,1,2,b'SB_2_frameA_foil.png',1593.5123481068383,47805.37044320515,47805,1593.5
102,1593.52590975,47805.7772925,47805,1593.5,1593.975802,47819.274059999996,47819,1593.9666666666667,1595.5104952499998,47865.314857499994,47865,1595.5,1.019399770128075,3,0,2,2,1,3,b'HB_5_frameB_foil.png',1596.529895020128,47895.896850603836,47895,1596.5
103,1596.5459664999998,47896.37899499999,47896,1596.5333333333333,1597.095852,47912.87556,47912,1597.0666666666666,1598.62955625,47958.886687499995,47958,1598.6,1.373036976379808,1,1,6,1,1,2,b'NB_19_frameB.png',1600.0025932263798,48000.07779679139,48000,1600.0
104,1600.0087549999998,48000.26265,48000,1600.0,1600.52531175,48015.7593525,48015,1600.5,1602.0595617499998,48061.786852499994,48061,1602.0333333333333,1.6328356203157455,3,1,2,2,2,3,b'HB_9_frameA.png',1603.6923973703156,48110.771921109466,48110,1603.6666666666667
105,1603.708549,48111.25647,48111,1603.7,1604.29175075,48128.7525225,48128,1604.2666666666667,1605.8253682499999,48174.7610475,48174,1605.8,1.4638784045237117,3,1,2,2,2,3,b'HB_1_frameB.png',1607.2892466545236,48218.67739963571,48218,1607.2666666666667
106,1607.3064295,48219.192885,48219,1607.3,1607.856306,48235.689179999994,48235,1607.8333333333333,1609.3911914999999,48281.735745,48281,1609.3666666666666,1.4077053827932104,1,0,6,1,2,2,b'NB_28_frameB_foil.png',1610.798896882793,48323.966906483794,48323,1610.7666666666667
107,1610.8132275,48324.396825,48324,1610.8,1611.3297747499998,48339.893242499995,48339,1611.3,1612.86342225,48385.9026675,48385,1612.8333333333333,1.319165931257885,1,1,2,2,2,3,b'NB_25_frameB.png',1614.1825881812579,48425.477645437735,48425,1614.1666666666667
108,1614.18804925,48425.6414775,48425,1614.1666666666667,1614.75459375,48442.6378125,48442,1614.7333333333333,1616.2883777499999,48488.6513325,48488,1616.2666666666667,1.4749334827065468,1,0,6,1,2,2,b'NB_21_frameA_foil.png',1617.7633112327064,48532.899336981194,48532,1617.7333333333333
109,1617.7744185,48533.232554999995,48533,1617.7666666666667,1618.257651,48547.72953,48547,1618.2333333333333,1619.791996,48593.75988,48593,1619.7666666666667,1.0944738199468702,3,1,2,2,2,3,b'HB_7_frameA.png',1620.8864698199468,48626.594094598404,48626,1620.8666666666666
110,1620.9041722499999,48627.125167499995,48627,1620.9,1621.4040479999999,48642.121439999995,48642,1621.4,1622.9387864999999,48688.163595,48688,1622.9333333333334,1.3802012199885212,1,1,2,2,2,3,b'NB_4_frameA.png',1624.3189877199884,48729.569631599654,48729,1624.3
111,1624.33418725,48730.0256175,48730,1624.3333333333333,1624.85077875,48745.523362500004,48745,1624.8333333333333,1626.38475225,48791.5425675,48791,1626.3666666666666,1.584930315904785,3,0,7,1,2,3,b'HB_6_frameB_foil.png',1627.9696825659048,48839.090476977144,48839,1627.9666666666667
112,1627.98237675,48839.4713025,48839,1627.9666666666667,1628.49893275,48854.9679825,48854,1628.4666666666667,1630.0329809999998,48900.989429999994,48900,1630.0,1.4227438609232195,2,1,6,1,1,2,b'SB_5_frameA.png',1631.455724860923,48943.67174582769,48943,1631.4333333333334
113,1631.4727517499998,48944.182552499995,48944,1631.4666666666667,1631.9726617499998,48959.1798525,48959,1631.9666666666667,1633.5062914999999,49005.18874499999,49005,1633.5,1.4951980796759017,2,0,2,2,1,3,b'SB_3_frameA_foil.png',1635.0014895796758,49050.04468739027,49050,1635.0
114,1635.0044249999999,49050.13275,49050,1635.0,1635.5544082499998,49066.6322475,49066,1635.5333333333333,1637.0891279999998,49112.673839999996,49112,1637.0666666666666,1.360772754647769,2,0,7,1,2,3,b'SB_6_frameB_foil.png',1638.4499007546476,49153.49702263943,49153,1638.4333333333334
115,1638.46174425,49153.852327500004,49153,1638.4333333333334,1638.99497675,49169.8493025,49169,1638.9666666666667,1640.5296965,49215.890895,49215,1640.5,1.5615816296776757,2,1,2,2,2,3,b'SB_2_frameA.png',1642.0912781296777,49262.73834389033,49262,1642.0666666666666
116,1642.1084792499998,49263.254377499994,49263,1642.1,1642.6583712499998,49279.751137499996,49279,1642.6333333333334,1644.19186625,49325.7559875,49325,1644.1666666666667,1.828276322572492,3,0,7,1,2,3,b'HB_7_frameB_foil.png',1646.0201425725725,49380.604277177175,49380,1646.0
117,1646.0381595,49381.144785,49381,1646.0333333333333,1646.5713852499998,49397.14155749999,49397,1646.5666666666666,1648.105217,49443.15651,49443,1648.1,1.5691214906983078,2,0,6,1,2,2,b'SB_1_frameA_foil.png',1649.6743384906983,49490.23015472095,49490,1649.6666666666667
118,1649.6774377499999,49490.323132499994,49490,1649.6666666666667,1650.2939649999998,49508.81894999999,49508,1650.2666666666667,1651.828724,49554.86172,49554,1651.8,1.30374938697787,2,0,2,2,1,3,b'SB_3_frameB_foil.png',1653.1324733869778,49593.97420160934,49593,1653.1
119,1653.1471789999998,49594.415369999995,49594,1653.1333333333334,1653.63044625,49608.9133875,49608,1653.6,1655.16452925,49654.9358775,49654,1655.1333333333334,1.3702378463931382,3,0,7,1,2,3,b'HB_2_frameB_foil.png',1656.5347670963931,49696.043012891794,49696,1656.5333333333333
120,1656.5482035,49696.446105,49696,1656.5333333333333,1657.0314395,49710.943185000004,49710,1657.0,1658.565597,49756.96791,49756,1658.5333333333333,1.1315647023147903,3,0,2,2,1,3,b'HB_9_frameA_foil.png',1659.6971617023148,49790.91485106944,49790,1659.6666666666667
121,1659.70276225,49791.0828675,49791,1659.7,1660.235992,49807.07975999999,49807,1660.2333333333333,1661.76967625,49853.0902875,49853,1661.7666666666667,1.2928549419157207,1,1,2,2,2,3,b'NB_14_frameA.png',1663.0625311919157,49891.875935757475,49891,1663.0333333333333
122,1663.070925,49892.12775,49892,1663.0666666666666,1663.6041495,49908.124485,49908,1663.6,1665.138237,49954.14711,49954,1665.1333333333334,1.0609202577616088,3,0,7,1,2,3,b'HB_6_frameA_foil.png',1666.1991572577615,49985.974717732846,49985,1666.1666666666667
123,1666.21796425,49986.5389275,49986,1666.2,1666.734518,50002.03554,50002,1666.7333333333333,1668.26843925,50048.0531775,50048,1668.2666666666667,1.3142794675077312,1,0,7,1,2,3,b'NB_25_frameA_foil.png',1669.5827187175078,50087.48156152523,50087,1669.5666666666666
124,1669.5861579999998,50087.58474,50087,1669.5666666666666,1670.0527304999998,50101.581914999995,50101,1670.0333333333333,1671.5868985,50147.606954999996,50147,1671.5666666666666,1.0210084653226659,3,0,7,1,2,3,b'HB_8_frameA_foil.png',1672.6079069653226,50178.237208959676,50178,1672.6
125,1672.6217425,50178.652275,50178,1672.6,1673.1382899999999,50194.1487,50194,1673.1333333333334,1674.671901,50240.157029999995,50240,1674.6666666666667,1.5493363210116513,3,1,6,1,1,2,b'HB_1_frameA.png',1676.2212373210116,50286.637119630344,50286,1676.2
126,1676.23655625,50287.0966875,50287,1676.2333333333333,1676.7531124999998,50302.593375,50302,1676.7333333333333,1678.2873769999999,50348.621309999995,50348,1678.2666666666667,1.471058975206688,1,1,5,1,1,1,b'NB_7_frameB.png',1679.7584359752066,50392.753079256196,50392,1679.7333333333333
127,1679.7631709999998,50392.89513,50392,1679.7333333333333,1680.26307275,50407.8921825,50407,1680.2333333333333,1681.7969147499998,50453.90744249999,50453,1681.7666666666667,1.5303133057313971,3,0,7,1,2,3,b'HB_3_frameA_foil.png',1683.3272280557312,50499.816841671935,50499,1683.3
128,1683.33599975,50500.079992499996,50500,1683.3333333333333,1683.88588575,50516.576572499995,50516,1683.8666666666666,1685.42010775,50562.6032325,50562,1685.4,1.302006614394486,1,1,2,2,2,3,b'NB_17_frameB.png',1686.7221143643944,50601.66343093183,50601,1686.7
129,1686.7337045,50602.011135,50602,1686.7333333333333,1687.21693775,50616.5081325,50616,1687.2,1688.7511372499998,50662.53411749999,50662,1688.7333333333333,1.2697850184631534,1,1,2,2,2,3,b'NB_13_frameB.png',1690.020922268463,50700.62766805389,50700,1690.0
130,1690.0353297499998,50701.059892499994,50701,1690.0333333333333,1690.5518455,50716.555365,50716,1690.5333333333333,1692.0862949999998,50762.58884999999,50762,1692.0666666666666,1.4436098654405214,1,0,6,1,2,2,b'NB_16_frameB_foil.png',1693.5299048654404,50805.89714596321,50805,1693.5
131,1693.539663,50806.18989,50806,1693.5333333333333,1694.0228895,50820.686685,50820,1694.0,1695.5576655,50866.729965,50866,1695.5333333333333,1.168621878954582,3,1,7,1,1,3,b'HB_7_frameB.png',1696.7262873789546,50901.788621368636,50901,1696.7
132,1696.74557375,50902.3672125,50902,1696.7333333333333,1697.2288099999998,50916.864299999994,50916,1697.2,1698.7628352499999,50962.885057499996,50962,1698.7333333333333,1.3780516661936417,1,1,5,1,1,1,b'NB_6_frameA.png',1700.1408869161935,51004.226607485805,51004,1700.1333333333334
133,1700.1579955,51004.739864999996,51004,1700.1333333333334,1700.724544,51021.736319999996,51021,1700.7,1702.25879075,51067.7637225,51067,1702.2333333333333,1.5259079239331186,1,0,5,1,2,1,b'NB_30_frameB_foil.png',1703.784698673933,51113.54096021799,51113,1703.7666666666667
134,1703.7871304999999,51113.613914999994,51113,1703.7666666666667,1704.2703857499998,51128.1115725,51128,1704.2666666666667,1705.80389625,51174.1168875,51174,1705.8,1.663860987930093,3,1,2,2,2,3,b'HB_2_frameB.png',1707.46775723793,51224.0327171379,51224,1707.4666666666667
135,1707.47917375,51224.3752125,51224,1707.4666666666667,1707.94575175,51238.3725525,51238,1707.9333333333334,1709.4792845,51284.378534999996,51284,1709.4666666666667,1.5499585641664453,2,0,6,1,2,2,b'SB_5_frameB_foil.png',1711.0292430641664,51330.87729192499,51330,1711.0
136,1711.0447765,51331.343295,51331,1711.0333333333333,1711.5446387499999,51346.33916249999,51346,1711.5333333333333,1713.07900025,51392.3700075,51392,1713.0666666666666,1.3319777137367055,1,0,5,1,2,1,b'NB_11_frameA_foil.png',1714.4109779637367,51432.3293389121,51432,1714.4
137,1714.4236595,51432.709785,51432,1714.4,1714.92361025,51447.7083075,51447,1714.9,1716.4573894999999,51493.721685,51493,1716.4333333333334,1.4030672999215312,1,0,5,1,2,1,b'NB_29_frameA_foil.png',1717.8604567999214,51535.81370399764,51535,1717.8333333333333
138,1717.8688707499998,51536.06612249999,51536,1717.8666666666666,1718.41874825,51552.5624475,51552,1718.4,1719.9525932499998,51598.577797499995,51598,1719.9333333333334,1.0777918812236749,3,1,7,1,1,3,b'HB_8_frameB.png',1721.0303851312235,51630.911553936705,51630,1721.0
139,1721.0366657499999,51631.0999725,51631,1721.0333333333333,1721.586544,51647.59632,51647,1721.5666666666666,1723.12071425,51693.6214275,51693,1723.1,1.2473165798583068,2,0,2,2,1,3,b'SB_2_frameA_foil.png',1724.3680308298583,51731.04092489575,51731,1724.3666666666666
140,1724.3890857499998,51731.67257249999,51731,1724.3666666666666,1724.8723054999998,51746.16916499999,51746,1724.8666666666666,1726.4069802499998,51792.20940749999,51792,1726.4,1.3514801284181885,1,1,6,1,1,2,b'NB_10_frameA.png',1727.758460378418,51832.75381135254,51832,1727.7333333333333
141,1727.7781129999998,51833.343389999995,51833,1727.7666666666667,1728.27799725,51848.3399175,51848,1728.2666666666667,1729.8122302499999,51894.36690749999,51894,1729.8,1.3869184855138883,1,1,2,2,2,3,b'NB_24_frameA.png',1731.1991487355137,51935.97446206541,51935,1731.1666666666667
142,1731.2121149999998,51936.36345,51936,1731.2,1731.77866075,51953.3598225,51953,1731.7666666666667,1733.3128709999999,51999.38613,51999,1733.3,1.6406780006363988,2,1,7,1,1,3,b'SB_1_frameB.png',1734.9535490006363,52048.60647001909,52048,1734.9333333333334
143,1734.9674005,52049.022014999995,52049,1734.9666666666667,1735.5339445,52066.018335,52066,1735.5333333333333,1737.06754675,52112.0264025,52112,1737.0666666666666,1.2282551408279687,1,0,7,1,2,3,b'NB_27_frameA_foil.png',1738.295801890828,52148.87405672484,52148,1738.2666666666667
144,1738.3121125,52149.363375,52149,1738.3,1738.8120139999999,52164.36042,52164,1738.8,1740.34644025,52210.3932075,52210,1740.3333333333333,1.9000566830509342,3,0,2,2,1,3,b'HB_1_frameA_foil.png',1742.2464969330508,52267.394907991526,52267,1742.2333333333333
145,1742.25290525,52267.5871575,52267,1742.2333333333333,1742.7861245,52283.583735,52283,1742.7666666666667,1744.319708,52329.59124,52329,1744.3,0.7356901261373423,3,1,3,2,2,2,b'HB_9_frameB.png',1745.0553981261373,52351.66194378412,52351,1745.0333333333333
146,1745.0616615,52351.849845,52351,1745.0333333333333,1745.594869,52367.84607,52367,1745.5666666666666,1747.129144,52413.87432,52413,1747.1,1.3328214642824605,3,1,3,2,2,2,b'HB_4_frameA.png',1748.4619654642825,52453.85896392848,52453,1748.4333333333334
147,1748.4750657499999,52454.251972499995,52454,1748.4666666666667,1748.991634,52469.74902,52469,1748.9666666666667,1750.5252825,52515.758475,52515,1750.5,1.6636294422205538,3,1,7,1,1,3,b'HB_1_frameB.png',1752.1889119422206,52565.66735826662,52565,1752.1666666666667
148,1752.20971225,52566.2913675,52566,1752.2,1752.6929149999999,52580.787449999996,52580,1752.6666666666667,1754.2265545,52626.796635,52626,1754.2,1.4249536078423262,3,1,7,1,1,3,b'HB_6_frameB.png',1755.6515081078423,52669.54524323527,52669,1755.6333333333334
149,1755.6646852499998,52669.9405575,52669,1755.6333333333334,1756.1979064999998,52685.93719499999,52685,1756.1666666666667,1757.73247075,52731.974122499996,52731,1757.7,1.430789913283661,2,1,2,2,2,3,b'SB_2_frameA.png',1759.1632606632836,52774.897819898506,52774,1759.1333333333334
150,1759.1811632499998,52775.434897499996,52775,1759.1666666666667,1759.71439825,52791.4319475,52791,1759.7,1761.24823875,52837.4471625,52837,1761.2333333333333,1.3725897379335947,1,1,3,2,2,2,b'NB_28_frameA.png',1762.6208284879335,52878.62485463801,52878,1762.6
151,1762.6312085,52878.936255,52878,1762.6,1763.08110375,52892.4331125,52892,1763.0666666666666,1764.6146267499998,52938.43880249999,52938,1764.6,1.4368047254392877,3,1,2,2,2,3,b'HB_6_frameA.png',1766.0514314754391,52981.54294426317,52981,1766.0333333333333
152,1766.0696962499999,52982.090887499995,52982,1766.0666666666666,1766.6695809999999,53000.08743,53000,1766.6666666666667,1768.203213,53046.09639,53046,1768.2,1.2572134631336667,3,1,7,1,1,3,b'HB_1_frameB.png',1769.4604264631337,53083.81279389401,53083,1769.4333333333334
153,1769.4646712499998,53083.940137499994,53083,1769.4333333333334,1769.9479015,53098.437045,53098,1769.9333333333334,1771.4815549999998,53144.44665,53144,1771.4666666666667,1.4128801560145803,1,0,7,1,2,3,b'NB_8_frameB_foil.png',1772.8944351560144,53186.833054680435,53186,1772.8666666666666
154,1772.9102945,53187.308834999996,53187,1772.9,1773.4101812499998,53202.30543749999,53202,1773.4,1774.9438082499998,53248.3142475,53248,1774.9333333333334,1.3525501970434561,1,1,7,1,1,3,b'NB_8_frameA.png',1776.2963584470433,53288.8907534113,53288,1776.2666666666667
155,1776.30999075,53289.2997225,53289,1776.3,1776.8098925,53304.296774999995,53304,1776.8,1778.3441894999999,53350.325684999996,53350,1778.3333333333333,1.6194890038459562,2,1,6,1,1,2,b'SB_4_frameB.png',1779.9636785038458,53398.910355115375,53398,1779.9333333333334
156,1779.97048275,53399.1144825,53399,1779.9666666666667,1780.4703745,53414.111235,53414,1780.4666666666667,1782.003951,53460.11853,53460,1782.0,2.0539792157360353,3,1,7,1,1,3,b'HB_6_frameA.png',1784.057930215736,53521.73790647208,53521,1784.0333333333333
157,1784.0726332499999,53522.1789975,53522,1784.0666666666666,1784.6058265,53538.174795,53538,1784.6,1786.140594,53584.21782,53584,1786.1333333333334,1.3247756198979914,1,0,7,1,2,3,b'NB_1_frameA_foil.png',1787.465369619898,53623.96108859694,53623,1787.4333333333334
158,1787.4716987499999,53624.150962499996,53624,1787.4666666666667,1787.9549284999998,53638.647854999996,53638,1787.9333333333334,1789.4885689999999,53684.657069999994,53684,1789.4666666666667,1.273258829722181,2,1,6,1,1,2,b'SB_1_frameB.png',1790.761827829722,53722.85483489166,53722,1790.7333333333333
159,1790.77514825,53723.2544475,53723,1790.7666666666667,1791.2917054999998,53738.751164999994,53738,1791.2666666666667,1792.825916,53784.77748,53784,1792.8,1.3550326885888353,1,1,4,2,2,1,b'NB_23_frameB.png',1794.1809486885888,53825.42846065766,53825,1794.1666666666667
160,1794.1868332499998,53825.60499749999,53825,1794.1666666666667,1794.6700515,53840.101545,53840,1794.6666666666667,1796.20393825,53886.1181475,53886,1796.2,1.2727331412606873,3,0,2,2,1,3,b'HB_5_frameA_foil.png',1797.4766713912607,53924.30014173782,53924,1797.4666666666667
161,1797.496913,53924.90739,53924,1797.4666666666667,1798.0467757499998,53941.40327249999,53941,1798.0333333333333,1799.5800407499999,53987.4012225,53987,1799.5666666666666,1.1890588024398312,1,0,2,2,1,3,b'NB_20_frameB_foil.png',1800.7690995524397,54023.07298657319,54023,1800.7666666666667
162,1800.77349575,54023.2048725,54023,1800.7666666666667,1801.2400727499999,54037.2021825,54037,1801.2333333333333,1802.7745065,54083.235195,54083,1802.7666666666667,1.6319843727396801,2,0,3,2,1,2,b'SB_4_frameB_foil.png',1804.4064908727396,54132.19472618219,54132,1804.4
163,1804.4138205,54132.414615,54132,1804.4,1804.91371175,54147.4113525,54147,1804.9,1806.447811,54193.434330000004,54193,1806.4333333333334,1.450447738985531,1,1,3,2,2,2,b'NB_27_frameB.png',1807.8982587389855,54236.94776216957,54236,1807.8666666666666
164,1807.90988,54237.2964,54237,1807.9,1808.4430982499998,54253.2929475,54253,1808.4333333333334,1809.9776434999999,54299.329305,54299,1809.9666666666667,1.3798474718932994,1,1,3,2,2,2,b'NB_1_frameB.png',1811.3574909718932,54340.7247291568,54340,1811.3333333333333
165,1811.365802,54340.97406,54340,1811.3333333333333,1811.9490107499998,54358.4703225,54358,1811.9333333333334,1813.4835775,54404.507325,54404,1813.4666666666667,1.3962042764760554,1,0,2,2,1,3,b'NB_5_frameA_foil.png',1814.879781776476,54446.39345329428,54446,1814.8666666666666
166,1814.8914885,54446.744654999995,54446,1814.8666666666666,1815.3913882499999,54461.7416475,54461,1815.3666666666666,1816.925197,54507.75591,54507,1816.9,1.4181771797593683,2,0,2,2,1,3,b'SB_3_frameB_foil.png',1818.3433741797594,54550.30122539278,54550,1818.3333333333333
167,1818.35764725,54550.7294175,54550,1818.3333333333333,1818.8741989999999,54566.22597,54566,1818.8666666666666,1820.40898075,54612.2694225,54612,1820.4,1.6458144727512263,3,0,7,1,2,3,b'HB_4_frameA_foil.png',1822.0547952227512,54661.64385668254,54661,1822.0333333333333
168,1822.06307475,54661.8922425,54661,1822.0333333333333,1822.5463017499999,54676.389052499995,54676,1822.5333333333333,1824.0809124999998,54722.42737499999,54722,1824.0666666666666,1.4043734899605624,1,1,7,1,1,3,b'NB_11_frameB.png',1825.4852859899604,54764.55857969881,54764,1825.4666666666667
169,1825.4966355,54764.899065,54764,1825.4666666666667,1826.01320225,54780.3960675,54780,1826.0,1827.546762,54826.40286,54826,1827.5333333333333,1.4593220296665095,2,1,7,1,1,3,b'SB_9_frameA.png',1829.0060840296665,54870.18252089,54870,1829.0
170,1829.0140327499998,54870.42098249999,54870,1829.0,1829.5472532499998,54886.417597499996,54886,1829.5333333333333,1831.0819522499999,54932.4585675,54932,1831.0666666666666,1.419095232791733,2,1,3,2,2,2,b'SB_3_frameA.png',1832.5010474827916,54975.03142448375,54975,1832.5
171,1832.51419575,54975.425872499996,54975,1832.5,1833.01407925,54990.4223775,54990,1833.0,1834.5488265,55036.464795,55036,1834.5333333333333,1.8111271086963825,3,0,2,2,1,3,b'HB_1_frameB_foil.png',1836.3599536086963,55090.79860826089,55090,1836.3333333333333
172,1836.36597775,55090.9793325,55090,1836.3333333333333,1836.8825694999998,55106.47708499999,55106,1836.8666666666666,1838.41716875,55152.5150625,55152,1838.4,1.3755056904046796,1,1,3,2,2,2,b'NB_29_frameB.png',1839.7926744404047,55193.78023321214,55193,1839.7666666666667
173,1839.8090257499998,55194.27077249999,55194,1839.8,1840.3422535,55210.267605,55210,1840.3333333333333,1841.876429,55256.29287,55256,1841.8666666666666,1.311568815202918,3,0,2,2,1,3,b'HB_9_frameB_foil.png',1843.1879978152028,55295.639934456085,55295,1843.1666666666667
174,1843.2025689999998,55296.07706999999,55296,1843.2,1843.71911775,55311.5735325,55311,1843.7,1845.2526584999998,55357.57975499999,55357,1845.2333333333333,1.6096316095790826,2,1,3,2,2,2,b'SB_2_frameA.png',1846.862290109579,55405.868703287364,55405,1846.8333333333333
175,1846.8692577499999,55406.077732499994,55406,1846.8666666666666,1847.435798,55423.07394,55423,1847.4333333333334,1848.9693117499999,55469.0793525,55469,1848.9666666666667,1.8382593207643367,2,0,6,1,2,2,b'SB_1_frameA_foil.png',1850.8075710707642,55524.22713212293,55524,1850.8
176,1850.811093,55524.33279,55524,1850.8,1851.29434025,55538.8302075,55538,1851.2666666666667,1852.82795225,55584.838567499995,55584,1852.8,1.8875864503788762,3,1,3,2,2,2,b'HB_2_frameA.png',1854.7155387003788,55641.46616101136,55641,1854.7
177,1854.7286057499998,55641.8581725,55641,1854.7,1855.2965554999998,55658.89666499999,55658,1855.2666666666667,1856.8446514999998,55705.339544999995,55705,1856.8333333333333,1.655066546285525,2,1,5,1,1,1,b'SB_30_frameA.png',1858.4997180462854,55754.99154138856,55754,1858.4666666666667
178,1858.5730465,55757.191394999994,55757,1858.5666666666666,1859.17662075,55775.2986225,55775,1859.1666666666667,1860.72961175,55821.8883525,55821,1860.7,1.4799506790586747,2,0,4,2,1,1,b'SB_30_frameB_foil.png',1862.2095624290587,55866.28687287176,55866,1862.2
179,1862.2628822499998,55867.88646749999,55867,1862.2333333333333,1862.7531657499999,55882.594972499995,55882,1862.7333333333333,1864.2613095,55927.839284999995,55927,1864.2333333333333,1.5639767618849874,3,1,6,1,1,2,b'HB_30_frameB.png',1865.825286261885,55974.758587856544,55974,1865.8
180,1865.8825135,55976.475405,55976,1865.8666666666666,1866.4835939999998,55994.50781999999,55994,1866.4666666666667,1868.0320782499998,56040.9623475,56040,1868.0,0.941801748063881,3,0,2,2,1,3,b'HB_30_frameA_foil.png',1868.9738799980637,56069.21639994191,56069,1868.9666666666667
