trial_num,fixcross_time,fixation_HZ,fixation_bin,fixation_regarded,start_time,Fstart_HZ,Fstart_bin,Fstart_regarded,stop_time,Fstop_HZ,Fstop_bin,Fstop_regarded,RT,boundary_type,stimuli_type,resp_value,old_new,accuracy,confidence,frameName,response_time,response_HZ,response_bin,response_regarded
1,1347.3374462499999,40420.123387499996,40420,1347.3333333333333,1347.887448,40436.623439999996,40436,1347.8666666666666,1349.42355425,40482.7066275,40482,1349.4,1.5138120605843142,2,0,6,1,2,2,b'SB_8_frameB_foil.png',1350.9373663105844,40528.12098931753,40528,1350.9333333333334
2,1350.95517425,40528.6552275,40528,1350.9333333333334,1351.47178825,40544.153647499996,40544,1351.4666666666667,1353.0055849999999,40590.16755,40590,1353.0,1.1374267201172188,1,0,6,1,2,2,b'NB_29_frameA_foil.png',1354.143011720117,40624.290351603515,40624,1354.1333333333334
3,1354.150803,40624.52409,40624,1354.1333333333334,1354.70069175,40641.0207525,40641,1354.7,1356.2343254999998,40687.02976499999,40687,1356.2333333333333,1.373067697742954,3,1,3,2,2,2,b'HB_6_frameA.png',1357.6073931977428,40728.22179593228,40728,1357.6
4,1357.628876,40728.86628,40728,1357.6,1358.14551125,40744.3653375,40744,1358.1333333333334,1359.6790549999998,40790.371649999994,40790,1359.6666666666667,1.5390730443177745,2,1,3,2,2,2,b'SB_1_frameA.png',1361.2181280443176,40836.54384132953,40836,1361.2
5,1361.22710825,40836.813247499995,40836,1361.2,1361.743731,40852.31193,40852,1361.7333333333333,1363.277541,40898.32623,40898,1363.2666666666667,0.0,3,1,1,0,1,0,b'HB_5_frameB.png',1363.277541,40898.32623,40898,1363.2666666666667
6,1364.78290325,40943.487097499994,40943,1364.7666666666667,1365.2998599999999,40958.9958,40958,1365.2666666666667,1366.8332149999999,41004.99645,41004,1366.8,1.962512764846906,1,1,3,2,2,2,b'NB_29_frameB.png',1368.7957277648468,41063.871832945406,41063,1368.7666666666667
7,1368.8093085,41064.279255,41064,1368.8,1369.3257724999999,41079.773174999995,41079,1369.3,1370.8593575,41125.780725,41125,1370.8333333333333,1.883429219480604,3,1,3,2,2,2,b'HB_1_frameB.png',1372.7427867194806,41182.283601584415,41182,1372.7333333333333
8,1372.7444355,41182.333065,41182,1372.7333333333333,1373.27801475,41198.3404425,41198,1373.2666666666667,1374.81150525,41244.3451575,41244,1374.8,1.5214442567666993,2,1,3,2,2,2,b'SB_1_frameB.png',1376.3329495067667,41289.988485203,41289,1376.3
9,1376.34148125,41290.2444375,41290,1376.3333333333333,1376.87475675,41306.2427025,41306,1376.8666666666666,1378.40852625,41352.2557875,41352,1378.4,0.7999666222603992,1,0,6,1,2,2,b'NB_21_frameA_foil.png',1379.2084928722604,41376.25478616781,41376,1379.2
10,1379.2129237499998,41376.38771249999,41376,1379.2,1379.6961445,41390.884334999995,41390,1379.6666666666667,1381.2297545,41436.892635,41436,1381.2,1.6834146907785907,2,1,3,2,2,2,b'SB_8_frameB.png',1382.9131691907785,41487.395075723354,41487,1382.9
11,1382.9252434999999,41487.75730499999,41487,1382.9,1383.475184,41504.25552,41504,1383.4666666666667,1385.0089484999999,41550.268455,41550,1385.0,1.50721092405729,2,1,3,2,2,2,b'SB_3_frameB.png',1386.5161594240572,41595.484782721716,41595,1386.5
12,1386.5242895,41595.728684999995,41595,1386.5,1387.057577,41611.72731,41611,1387.0333333333333,1388.5913879999998,41657.74163999999,41657,1388.5666666666666,1.619563841028139,1,1,2,2,2,3,b'NB_13_frameB.png',1390.210951841028,41706.32855523084,41706,1390.2
13,1390.2274085,41706.822255,41706,1390.2,1390.7441462499999,41722.3243875,41722,1390.7333333333333,1392.27761375,41768.3284125,41768,1392.2666666666667,1.9956666136858985,3,1,3,2,2,2,b'HB_4_frameA.png',1394.273280363686,41828.198410910576,41828,1394.2666666666667
14,1394.276966,41828.308979999994,41828,1394.2666666666667,1394.81023625,41844.3070875,41844,1394.8,1396.3438935,41890.316804999995,41890,1396.3333333333333,0.0,1,0,1,0,1,0,b'NB_12_frameB_foil.png',1396.3438935,41890.316804999995,41890,1396.3333333333333
15,1398.6054374999999,41958.163125,41958,1398.6,1399.10534425,41973.160327499994,41973,1399.1,1400.6391595,42019.174785,42019,1400.6333333333334,1.7129925893386826,2,1,3,2,2,2,b'SB_6_frameA.png',1402.3521520893387,42070.56456268016,42070,1402.3333333333333
16,1402.36766825,42071.0300475,42071,1402.3666666666666,1402.8508817499999,42085.526452499995,42085,1402.8333333333333,1404.3844305,42131.532915,42131,1404.3666666666666,1.4895832303445786,2,0,6,1,2,2,b'SB_1_frameB_foil.png',1405.8740137303446,42176.22041191034,42176,1405.8666666666666
17,1405.885125,42176.55375,42176,1405.8666666666666,1406.35175175,42190.5525525,42190,1406.3333333333333,1407.8853895,42236.561685,42236,1407.8666666666666,1.1980379393789917,3,0,6,1,2,2,b'HB_9_frameA_foil.png',1409.083427439379,42272.50282318137,42272,1409.0666666666666
18,1409.09325425,42272.7976275,42272,1409.0666666666666,1409.5931735,42287.795204999995,42287,1409.5666666666666,1411.126873,42333.806189999996,42333,1411.1,1.4883254684973508,3,0,6,1,2,2,b'HB_4_frameB_foil.png',1412.6151984684973,42378.455954054916,42378,1412.6
19,1412.632955,42378.98865,42378,1412.6,1413.16631375,42394.9894125,42394,1413.1333333333334,1414.6998875,42440.996625,42440,1414.6666666666667,1.45935233309865,2,1,3,2,2,2,b'SB_1_frameB.png',1416.1592398330986,42484.77719499296,42484,1416.1333333333334
20,1416.1767977499999,42485.3039325,42485,1416.1666666666667,1416.62680075,42498.8040225,42498,1416.6,1418.1603519999999,42544.81056,42544,1418.1333333333334,0.988130345242098,1,1,2,2,2,3,b'NB_16_frameA.png',1419.148482345242,42574.45447035726,42574,1419.1333333333334
21,1419.163294,42574.89882,42574,1419.1333333333334,1419.6798032499998,42590.39409749999,42590,1419.6666666666667,1421.21365075,42636.4095225,42636,1421.2,1.211249008309096,1,0,7,1,2,3,b'NB_30_frameB_foil.png',1422.424899758309,42672.74699274927,42672,1422.4
22,1422.4290485,42672.871455,42672,1422.4,1422.9623124999998,42688.869374999995,42688,1422.9333333333334,1424.4960415,42734.881245000004,42734,1424.4666666666667,1.341818394139409,3,0,6,1,2,2,b'HB_9_frameB_foil.png',1425.8378598941395,42775.13579682419,42775,1425.8333333333333
23,1425.8462427499999,42775.3872825,42775,1425.8333333333333,1426.3462607499998,42790.38782249999,42790,1426.3333333333333,1427.879934,42836.39802,42836,1427.8666666666666,1.1390884758438915,3,1,3,2,2,2,b'HB_7_frameA.png',1429.019022475844,42870.57067427532,42870,1429.0
24,1429.031157,42870.934709999994,42870,1429.0,1429.59779675,42887.9339025,42887,1429.5666666666666,1431.13127525,42933.9382575,42933,1431.1,1.0439217733219266,1,1,2,2,2,3,b'NB_28_frameA.png',1432.175197023322,42965.255910699656,42965,1432.1666666666667
25,1432.212215,42966.36645,42966,1432.2,1432.778804,42983.36412,42983,1432.7666666666667,1434.312322,43029.36966,43029,1434.3,2.2471534373471513,3,1,3,2,2,2,b'HB_2_frameA.png',1436.5594754373471,43096.78426312041,43096,1436.5333333333333
26,1436.56872325,43097.0616975,43097,1436.5666666666666,1437.1186524999998,43113.55957499999,43113,1437.1,1438.652323,43159.569690000004,43159,1438.6333333333334,1.3233479184564203,2,1,3,2,2,2,b'SB_3_frameA.png',1439.9756709184564,43199.2701275537,43199,1439.9666666666667
27,1439.9914562499998,43199.7436875,43199,1439.9666666666667,1440.4581014999999,43213.743044999996,43213,1440.4333333333334,1441.9916994999999,43259.750985,43259,1441.9666666666667,1.6106655516196042,3,0,6,1,2,2,b'HB_2_frameB_foil.png',1443.6023650516195,43308.07095154859,43308,1443.6
28,1443.61682225,43308.504667500005,43308,1443.6,1444.116669,43323.50007,43323,1444.1,1445.6503355,43369.510065,43369,1445.6333333333334,1.6363088509533554,1,0,7,1,2,3,b'NB_24_frameB_foil.png',1447.2866443509533,43418.5993305286,43418,1447.2666666666667
29,1447.2999055,43418.997165,43418,1447.2666666666667,1447.833281,43434.99843,43434,1447.8,1449.36683,43481.0049,43481,1449.3666666666666,1.5745994340395555,2,0,6,1,2,2,b'SB_9_frameB_foil.png',1450.9414294340395,43528.24288302119,43528,1450.9333333333334
30,1450.95493775,43528.6481325,43528,1450.9333333333334,1451.4214877499999,43542.6446325,43542,1451.4,1452.95524675,43588.6574025,43588,1452.9333333333334,1.4940906357951462,3,0,6,1,2,2,b'HB_5_frameA_foil.png',1454.4493373857952,43633.480121573855,43633,1454.4333333333334
31,1454.45737025,43633.7211075,43633,1454.4333333333334,1455.0073197499999,43650.2195925,43650,1455.0,1456.541039,43696.23117,43696,1456.5333333333333,0.8407444212352857,1,1,2,2,2,3,b'NB_11_frameB.png',1457.3817834212352,43721.45350263706,43721,1457.3666666666666
32,1457.38458825,43721.5376475,43721,1457.3666666666666,1457.86787225,43736.036167499995,43736,1457.8666666666666,1459.4015215,43782.045645,43782,1459.4,2.4664178823586553,3,1,3,2,2,2,b'HB_1_frameA.png',1461.8679393823586,43856.03818147076,43856,1461.8666666666666
33,1461.8774792499999,43856.324377499994,43856,1461.8666666666666,1462.3941257499998,43871.82377249999,43871,1462.3666666666666,1463.9275765,43917.827295,43917,1463.9,1.6649960649665445,3,0,6,1,2,2,b'HB_2_frameB_foil.png',1465.5925725649665,43967.777176949,43967,1465.5666666666666
34,1465.6090665,43968.271994999996,43968,1465.6,1466.092357,43982.77071,43982,1466.0666666666666,1467.6262072499999,44028.7862175,44028,1467.6,1.5283552104374394,3,1,3,2,2,2,b'HB_1_frameA.png',1469.1545624604373,44074.63687381312,44074,1469.1333333333334
35,1469.16729825,44075.0189475,44075,1469.1666666666667,1469.68380375,44090.5141125,44090,1469.6666666666667,1471.2174415,44136.523245,44136,1471.2,1.4919098919490352,1,1,2,2,2,3,b'NB_24_frameA.png',1472.709351391949,44181.28054175847,44181,1472.7
36,1472.728214,44181.84642,44181,1472.7,1473.2447095,44197.341285,44197,1473.2333333333333,1474.7783614999998,44243.35084499999,44243,1474.7666666666667,0.9230081834830344,1,0,7,1,2,3,b'NB_3_frameA_foil.png',1475.7013696834829,44271.041090504485,44271,1475.7
37,1475.7105884999999,44271.317655,44271,1475.7,1476.22724075,44286.8172225,44286,1476.2,1477.76071,44332.8213,44332,1477.7333333333333,1.4414055778179318,3,1,3,2,2,2,b'HB_9_frameB.png',1479.202115577818,44376.06346733454,44376,1479.2
38,1479.2084854999998,44376.254564999996,44376,1479.2,1479.725056,44391.75168,44391,1479.7,1481.25868,44437.7604,44437,1481.2333333333333,1.4879575392697006,2,1,3,2,2,2,b'SB_4_frameA.png',1482.7466375392696,44482.39912617809,44482,1482.7333333333333
39,1482.7602507499998,44482.80752249999,44482,1482.7333333333333,1483.2769087499998,44498.3072625,44498,1483.2666666666667,1484.8102675,44544.308025,44544,1484.8,1.5297475691186264,1,0,7,1,2,3,b'NB_19_frameA_foil.png',1486.3400150691186,44590.20045207356,44590,1486.3333333333333
40,1486.3515667499998,44590.547002499996,44590,1486.3333333333333,1486.86823225,44606.0469675,44606,1486.8666666666666,1488.4017625,44652.052874999994,44652,1488.4,1.5223238604376093,1,0,7,1,2,3,b'NB_11_frameA_foil.png',1489.9240863604375,44697.72259081312,44697,1489.9
41,1489.9313184999999,44697.939555,44697,1489.9,1490.49795875,44714.9387625,44714,1490.4666666666667,1492.03150425,44760.945127499996,44760,1492.0,1.5650930437259376,2,0,6,1,2,2,b'SB_2_frameB_foil.png',1493.5965972937258,44807.897918811774,44807,1493.5666666666666
42,1493.6014054999998,44808.04216499999,44808,1493.6,1494.1346247499998,44824.03874249999,44824,1494.1333333333334,1495.66825625,44870.0476875,44870,1495.6666666666667,1.6572601404041052,1,1,2,2,2,3,b'NB_7_frameB.png',1497.3255163904041,44919.765491712125,44919,1497.3
43,1497.34203125,44920.2609375,44920,1497.3333333333333,1497.85862525,44935.7587575,44935,1497.8333333333333,1499.39229075,44981.7687225,44981,1499.3666666666666,1.3973728325217962,2,0,7,1,2,3,b'SB_1_frameA_foil.png',1500.7896635825218,45023.68990747565,45023,1500.7666666666667
44,1500.7940167499999,45023.8205025,45023,1500.7666666666667,1501.31054475,45039.3163425,45039,1501.3,1502.844281,45085.328429999994,45085,1502.8333333333333,1.419149830704555,3,1,3,2,2,2,b'HB_3_frameA.png',1504.2634308307045,45127.90292492113,45127,1504.2333333333333
45,1504.27938075,45128.3814225,45128,1504.2666666666667,1504.8126674999999,45144.380025,45144,1504.8,1506.34646125,45190.3938375,45190,1506.3333333333333,1.5876190696144477,1,1,7,1,1,3,b'NB_17_frameB.png',1507.9340803196144,45238.02240958843,45238,1507.9333333333334
46,1507.939841,45238.19523,45238,1507.9333333333334,1508.45653875,45253.6961625,45253,1508.4333333333334,1509.99027075,45299.7081225,45299,1509.9666666666667,0.9566054580500349,1,0,7,1,2,3,b'NB_8_frameB_foil.png',1510.94687620805,45328.4062862415,45328,1510.9333333333334
47,1510.9561254999999,45328.683764999994,45328,1510.9333333333334,1511.42268625,45342.6805875,45342,1511.4,1512.9562695,45388.688085,45388,1512.9333333333334,1.6954163309419528,2,0,7,1,2,3,b'SB_6_frameB_foil.png',1514.651685830942,45439.55057492826,45439,1514.6333333333334
48,1514.65429625,45439.6288875,45439,1514.6333333333334,1515.17086325,45455.125897499995,45455,1515.1666666666667,1516.70445125,45501.1335375,45501,1516.7,1.0445285548921674,3,0,6,1,2,2,b'HB_7_frameA_foil.png',1517.748979804892,45532.46939414676,45532,1517.7333333333333
49,1517.75766375,45532.7299125,45532,1517.7333333333333,1518.2909805,45548.729414999994,45548,1518.2666666666667,1519.8245889999998,45594.737669999995,45594,1519.8,1.7369868681998923,1,0,7,1,2,3,b'NB_15_frameA_foil.png',1521.5615758681997,45646.84727604599,45646,1521.5333333333333
50,1521.571892,45647.15676,45647,1521.5666666666666,1522.0551699999999,45661.655099999996,45661,1522.0333333333333,1523.5888512499998,45707.6655375,45707,1523.5666666666666,1.8799445988843217,1,0,2,2,1,3,b'NB_28_frameB_foil.png',1525.4687958488842,45764.06387546653,45764,1525.4666666666667
51,1525.47484625,45764.2453875,45764,1525.4666666666667,1525.9914125,45779.742375,45779,1525.9666666666667,1527.52527025,45825.7581075,45825,1527.5,1.6015944859245792,2,0,7,1,2,3,b'SB_2_frameA_foil.png',1529.1268647359245,45873.805942077735,45873,1529.1
52,1529.1334017499998,45874.00205249999,45874,1529.1333333333334,1529.6499784999999,45889.49935499999,45889,1529.6333333333334,1531.18345175,45935.5035525,45935,1531.1666666666667,1.530904648709111,1,0,2,2,1,3,b'NB_26_frameB_foil.png',1532.714356398709,45981.43069196127,45981,1532.7
53,1532.7317094999999,45981.951284999996,45981,1532.7,1533.2483392499998,45997.450177499995,45997,1533.2333333333333,1534.7818599999998,46043.455799999996,46043,1534.7666666666667,1.5456054471433163,2,0,7,1,2,3,b'SB_7_frameA_foil.png',1536.3274654471431,46089.823963414296,46089,1536.3
54,1536.3428877499998,46090.28663249999,46090,1536.3333333333333,1536.82617225,46104.7851675,46104,1536.8,1538.35987925,46150.796377499995,46150,1538.3333333333333,2.2146841859212145,1,1,7,1,1,3,b'NB_23_frameB.png',1540.5745634359212,46217.23690307763,46217,1540.5666666666666
55,1540.5828465,46217.485394999996,46217,1540.5666666666666,1541.0660397499998,46231.981192499996,46231,1541.0333333333333,1542.5997567499999,46277.99270249999,46277,1542.5666666666666,1.0672225769376382,1,1,2,2,2,3,b'NB_25_frameB.png',1543.6669793269375,46310.00937980812,46310,1543.6666666666667
56,1543.6827105,46310.481315,46310,1543.6666666666667,1544.2160622499998,46326.48186749999,46326,1544.2,1545.7495877499998,46372.48763249999,46372,1545.7333333333333,1.4501841912278906,2,1,2,2,2,3,b'SB_1_frameA.png',1547.1997719412277,46415.99315823683,46415,1547.1666666666667
57,1547.20249475,46416.0748425,46416,1547.2,1547.7192249999998,46431.57674999999,46431,1547.7,1549.2528125,46477.584375,46477,1549.2333333333333,1.5490027383202687,2,1,2,2,2,3,b'SB_3_frameA.png',1550.8018152383202,46524.05445714961,46524,1550.8
58,1550.80495075,46524.1485225,46524,1550.8,1551.3549524999999,46540.648575,46540,1551.3333333333333,1552.88853075,46586.6559225,46586,1552.8666666666666,1.6514668011805043,3,0,3,2,1,2,b'HB_5_frameB_foil.png',1554.5399975511805,46636.19992653542,46636,1554.5333333333333
59,1554.5589525,46636.768575,46636,1554.5333333333333,1555.02552975,46650.7658925,46650,1555.0,1556.55928225,46696.7784675,46696,1556.5333333333333,2.1963431988842785,1,0,7,1,2,3,b'NB_5_frameA_foil.png',1558.7556254488843,46762.66876346653,46762,1558.7333333333333
60,1558.77371675,46763.211502499995,46763,1558.7666666666667,1559.30698775,46779.2096325,46779,1559.3,1560.8406727499998,46825.220182499994,46825,1560.8333333333333,1.4766883888514712,2,0,7,1,2,3,b'SB_5_frameB_foil.png',1562.3173611388513,46869.52083416554,46869,1562.3
61,1562.33124275,46869.9372825,46869,1562.3,1562.864547,46885.936409999995,46885,1562.8333333333333,1564.39825475,46931.9476425,46931,1564.3666666666666,1.5686484501929954,1,0,7,1,2,3,b'NB_2_frameB_foil.png',1565.966903200193,46979.00709600579,46979,1565.9666666666667
62,1565.97666025,46979.2998075,46979,1565.9666666666667,1566.47657725,46994.2973175,46994,1566.4666666666667,1568.010053,47040.30159,47040,1568.0,2.383644171175547,3,1,6,1,1,2,b'HB_6_frameA.png',1570.3936971711755,47111.81091513527,47111,1570.3666666666666
63,1570.39985125,47111.9955375,47111,1570.3666666666666,1570.9164515,47127.493545,47127,1570.9,1572.45002925,47173.500877499995,47173,1572.4333333333334,0.40897842193953693,3,0,3,2,1,2,b'HB_1_frameB_foil.png',1572.8590076719395,47185.77023015818,47185,1572.8333333333333
64,1572.8675415,47186.026245,47186,1572.8666666666666,1573.36751775,47201.025532499996,47201,1573.3666666666666,1574.90113425,47247.0340275,47247,1574.9,1.0215347803896293,1,1,2,2,2,3,b'NB_15_frameB.png',1575.9226690303897,47277.68007091169,47277,1575.9
65,1575.940553,47278.216589999996,47278,1575.9333333333334,1576.4238787499999,47292.716362499996,47292,1576.4,1577.95745575,47338.7236725,47338,1577.9333333333334,1.652859512483701,2,0,7,1,2,3,b'SB_1_frameA_foil.png',1579.6103152624837,47388.30945787451,47388,1579.6
66,1579.6252815,47388.758445,47388,1579.6,1580.175112,47405.253359999995,47405,1580.1666666666667,1581.708841,47451.26523,47451,1581.7,2.0249952628510073,3,0,6,1,2,2,b'HB_2_frameA_foil.png',1583.733836262851,47512.01508788553,47512,1583.7333333333333
67,1583.7488047499999,47512.46414249999,47512,1583.7333333333333,1584.2654029999999,47527.96208999999,47527,1584.2333333333333,1585.7989412499999,47573.9682375,47573,1585.7666666666667,1.3481220193207264,2,1,2,2,2,3,b'SB_1_frameB.png',1587.1470632693206,47614.41189807962,47614,1587.1333333333334
68,1587.1597487499998,47614.792462499994,47614,1587.1333333333334,1587.72639975,47631.791992499995,47631,1587.7,1589.2600785,47677.802355,47677,1589.2333333333333,1.4913648036308587,2,1,2,2,2,3,b'SB_2_frameA.png',1590.7514433036308,47722.543299108926,47722,1590.7333333333333
69,1590.75477975,47722.643392499995,47722,1590.7333333333333,1591.2213387499999,47736.64016249999,47736,1591.2,1592.7547622499999,47782.6428675,47782,1592.7333333333333,1.498984097619541,1,1,7,1,1,3,b'NB_5_frameB.png',1594.2537463476194,47827.612390428585,47827,1594.2333333333333
70,1594.2660544999999,47827.981635,47827,1594.2333333333333,1594.7827009999999,47843.481029999995,47843,1594.7666666666667,1596.31619475,47889.4858425,47889,1596.3,1.6718331824522465,2,1,2,2,2,3,b'SB_5_frameB.png',1597.9880279324523,47939.640837973566,47939,1597.9666666666667
71,1597.99484225,47939.8452675,47939,1597.9666666666667,1598.4781067499998,47954.34320249999,47954,1598.4666666666667,1600.0116317499999,48000.3489525,48000,1600.0,1.2616354202618822,1,0,7,1,2,3,b'NB_27_frameA_foil.png',1601.2732671702618,48038.19801510785,48038,1601.2666666666667
72,1601.28414125,48038.5242375,48038,1601.2666666666667,1601.7840772499999,48053.5223175,48053,1601.7666666666667,1603.31779025,48099.5337075,48099,1603.3,1.5817921925336123,1,0,7,1,2,3,b'NB_6_frameB_foil.png',1604.8995824425335,48146.98747327601,48146,1604.8666666666666
73,1604.916637,48147.499110000004,48147,1604.9,1605.39994925,48161.9984775,48161,1605.3666666666666,1606.9669984999998,48209.009954999994,48209,1606.9666666666667,2.083258200902492,1,0,2,2,1,3,b'NB_7_frameA_foil.png',1609.0502567009023,48271.50770102707,48271,1609.0333333333333
74,1609.06120625,48271.8361875,48271,1609.0333333333333,1609.5944177499998,48287.8325325,48287,1609.5666666666666,1611.1281327499998,48333.843982499995,48333,1611.1,1.4452294207876548,1,0,7,1,2,3,b'NB_17_frameA_foil.png',1612.5733621707875,48377.200865123625,48377,1612.5666666666666
75,1612.5900367499999,48377.701102499996,48377,1612.5666666666666,1613.0735217499998,48392.20565249999,48392,1613.0666666666666,1614.606861,48438.20583,48438,1614.6,0.5914149812888354,1,1,7,1,1,3,b'NB_8_frameA.png',1615.1982759812888,48455.948279438664,48455,1615.1666666666667
76,1615.2111492499998,48456.33447749999,48456,1615.2,1615.6777197499998,48470.33159249999,48470,1615.6666666666667,1617.21137325,48516.3411975,48516,1617.2,1.7547781425528228,2,1,2,2,2,3,b'SB_5_frameA.png',1618.9661513925528,48568.98454177658,48568,1618.9333333333334
77,1618.9782894999998,48569.348685,48569,1618.9666666666667,1619.44497675,48583.3493025,48583,1619.4333333333334,1620.97844925,48629.3534775,48629,1620.9666666666667,1.5174164813943207,2,0,7,1,2,3,b'SB_2_frameB_foil.png',1622.4958657313944,48674.87597194183,48674,1622.4666666666667
78,1622.503741,48675.11223,48675,1622.5,1622.98696675,48689.6090025,48689,1622.9666666666667,1624.5205959999998,48735.61788,48735,1624.5,1.553952308371663,2,1,2,2,2,3,b'SB_7_frameB.png',1626.0745483083715,48782.23644925115,48782,1626.0666666666666
79,1626.0845299999999,48782.535899999995,48782,1626.0666666666666,1626.65113075,48799.5339225,48799,1626.6333333333334,1628.18456225,48845.5368675,48845,1628.1666666666667,1.9173630903242156,3,1,3,2,2,2,b'HB_8_frameB.png',1630.1019253403242,48903.057760209726,48903,1630.1
80,1630.117037,48903.51111,48903,1630.1,1630.683484,48920.504519999995,48920,1630.6666666666667,1632.217267,48966.51801,48966,1632.2,1.768257341813296,1,1,2,2,2,3,b'NB_14_frameA.png',1633.9855243418133,49019.5657302544,49019,1633.9666666666667
81,1633.9933294999998,49019.79988499999,49019,1633.9666666666667,1634.45995875,49033.798762499995,49033,1634.4333333333334,1635.9934999999998,49079.80499999999,49079,1635.9666666666667,2.1400069830706343,3,1,6,1,1,2,b'HB_2_frameA.png',1638.1335069830704,49144.00520949211,49144,1638.1333333333334
82,1638.15055125,49144.5165375,49144,1638.1333333333334,1638.63381725,49159.0145175,49159,1638.6333333333334,1640.16741525,49205.0224575,49205,1640.1666666666667,1.7154867078643292,3,1,3,2,2,2,b'HB_9_frameA.png',1641.8829019578643,49256.48705873593,49256,1641.8666666666666
83,1641.89417775,49256.8253325,49256,1641.8666666666666,1642.394081,49271.82243,49271,1642.3666666666666,1643.92769325,49317.8307975,49317,1643.9,1.5252031012205407,2,0,7,1,2,3,b'SB_2_frameA_foil.png',1645.4528963512205,49363.586890536615,49363,1645.4333333333334
84,1645.4610304999999,49363.830915,49363,1645.4333333333334,1645.9776877499999,49379.330632499994,49379,1645.9666666666667,1647.511395,49425.34185,49425,1647.5,1.3426812852267176,2,0,7,1,2,3,b'SB_6_frameA_foil.png',1648.8540762852267,49465.6222885568,49465,1648.8333333333333
85,1648.872332,49466.16996,49466,1648.8666666666666,1649.3890305,49481.670915,49481,1649.3666666666666,1650.9227294999998,49527.681885,49527,1650.9,1.6356395273469388,3,1,3,2,2,2,b'HB_5_frameA.png',1652.5583690273468,49576.751070820406,49576,1652.5333333333333
86,1652.5742432499999,49577.227297499994,49577,1652.5666666666666,1653.090945,49592.72835,49592,1653.0666666666666,1654.624497,49638.73491,49638,1654.6,1.4080366457346827,2,0,7,1,2,3,b'SB_3_frameB_foil.png',1656.0325336457347,49680.97600937204,49680,1656.0
87,1656.0442289999999,49681.32687,49681,1656.0333333333333,1656.5275602499999,49695.826807499994,49695,1656.5,1658.06153825,49741.8461475,49741,1658.0333333333333,1.3653139028465375,1,1,7,1,1,3,b'NB_1_frameB.png',1659.4268521528465,49782.8055645854,49782,1659.4
88,1659.4291632499999,49782.8748975,49782,1659.4,1659.895949,49796.878469999996,49796,1659.8666666666666,1661.4295035,49842.885105,49842,1661.4,1.5059645334258676,2,1,7,1,1,3,b'SB_7_frameA.png',1662.9354680334259,49888.06404100278,49888,1662.9333333333334
89,1662.946342,49888.39026,49888,1662.9333333333334,1663.4630177499998,49903.890532499994,49903,1663.4333333333334,1664.996525,49949.89575,49949,1664.9666666666667,1.9494440427515656,3,1,6,1,1,2,b'HB_1_frameB.png',1666.9459690427516,50008.37907128255,50008,1666.9333333333334
90,1666.9521117499999,50008.563352499994,50008,1666.9333333333334,1667.50202425,50025.0607275,50025,1667.5,1669.0356024999999,50071.068074999996,50071,1669.0333333333333,1.4317387960618362,2,1,7,1,1,3,b'SB_6_frameB.png',1670.4673412960617,50114.02023888185,50114,1670.4666666666667
91,1670.4758917499998,50114.276752499994,50114,1670.4666666666667,1671.0258744999999,50130.776235,50130,1671.0,1672.5595575,50176.786725,50176,1672.5333333333333,1.1734745157882571,3,0,6,1,2,2,b'HB_2_frameB_foil.png',1673.7330320157882,50211.990960473646,50211,1673.7
92,1673.7497462499998,50212.492387499995,50212,1673.7333333333333,1674.31652425,50229.4957275,50229,1674.3,1675.8499642499999,50275.4989275,50275,1675.8333333333333,0.1400728051085025,3,1,3,2,2,2,b'HB_4_frameB.png',1675.9900370551084,50279.70111165325,50279,1675.9666666666667
93,1676.0014979999999,50280.04493999999,50280,1676.0,1676.5347937499998,50296.04381249999,50296,1676.5333333333333,1678.06851925,50342.0555775,50342,1678.0666666666666,1.5986742882523686,3,1,6,1,1,2,b'HB_5_frameA.png',1679.6671935382524,50390.015806147574,50390,1679.6666666666667
94,1679.67029675,50390.108902500004,50390,1679.6666666666667,1680.153624,50404.608720000004,50404,1680.1333333333334,1681.68734,50450.6202,50450,1681.6666666666667,1.311831338214688,3,0,6,1,2,2,b'HB_3_frameB_foil.png',1682.9991713382146,50489.97514014644,50489,1682.9666666666667
95,1683.0127782499999,50490.3833475,50490,1683.0,1683.5626989999998,50506.88097,50506,1683.5333333333333,1685.0961805,50552.885415,50552,1685.0666666666666,2.0793367557926103,3,0,6,1,2,2,b'HB_8_frameA_foil.png',1687.1755172557926,50615.265517673775,50615,1687.1666666666667
96,1687.18906275,50615.6718825,50615,1687.1666666666667,1687.722364,50631.67092,50631,1687.7,1689.25590775,50677.6772325,50677,1689.2333333333333,1.4998113345354795,2,1,7,1,1,3,b'SB_8_frameA.png',1690.7557190845355,50722.67157253606,50722,1690.7333333333333
97,1690.7577285,50722.731855,50722,1690.7333333333333,1691.22443525,50736.7330575,50736,1691.2,1692.75792725,50782.7378175,50782,1692.7333333333333,0.7300079764099792,3,1,3,2,2,2,b'HB_1_frameB.png',1693.48793522641,50804.6380567923,50804,1693.4666666666667
98,1693.52883825,50805.8651475,50805,1693.5,1694.06203025,50821.8609075,50821,1694.0333333333333,1695.59552775,50867.8658325,50867,1695.5666666666666,1.5791033351561055,2,1,7,1,1,3,b'SB_2_frameA.png',1697.174631085156,50915.23893255468,50915,1697.1666666666667
99,1697.18039175,50915.4117525,50915,1697.1666666666667,1697.7136715,50931.410144999994,50931,1697.7,1699.2472962499999,50977.418887499996,50977,1699.2333333333333,0.9827963428106159,3,1,3,2,2,2,b'HB_2_frameA.png',1700.2300925928105,51006.902777784315,51006,1700.2
100,1700.232342,51006.97026,51006,1700.2,1700.765741,51022.97223,51022,1700.7333333333333,1702.29904025,51068.9712075,51068,1702.2666666666667,1.521078082616441,3,1,6,1,1,2,b'HB_2_frameA.png',1703.8201183326164,51114.60354997849,51114,1703.8
101,1703.8332277499999,51114.99683249999,51114,1703.8,1704.366524,51130.99572,51130,1704.3333333333333,1705.90028325,51177.0084975,51177,1705.9,1.6369787977309898,1,1,7,1,1,3,b'NB_18_frameA.png',1707.537262047731,51226.11786143193,51226,1707.5333333333333
102,1707.544432,51226.33296,51226,1707.5333333333333,1708.027723,51240.83169,51240,1708.0,1709.561231,51286.83693,51286,1709.5333333333333,1.5250182512681931,1,0,2,2,1,3,b'NB_4_frameB_foil.png',1711.086249251268,51332.58747753804,51332,1711.0666666666666
103,1711.08842975,51332.652892499995,51332,1711.0666666666666,1711.58844675,51347.6534025,51347,1711.5666666666666,1713.1219875,51393.659625,51393,1713.1,1.8185557873221114,1,1,7,1,1,3,b'NB_21_frameB.png',1714.940543287322,51448.21629861966,51448,1714.9333333333334
104,1714.9522195,51448.566585,51448,1714.9333333333334,1715.46885675,51464.0657025,51464,1715.4666666666667,1717.00243125,51510.0729375,51510,1717.0,1.6761772220488638,3,0,6,1,2,2,b'HB_5_frameB_foil.png',1718.6786084720488,51560.35825416147,51560,1718.6666666666667
105,1718.68654,51560.5962,51560,1718.6666666666667,1719.1532155,51574.596465,51574,1719.1333333333334,1720.6867315,51620.601945,51620,1720.6666666666667,1.8522584387101233,1,0,7,1,2,3,b'NB_18_frameB_foil.png',1722.53898993871,51676.169698161306,51676,1722.5333333333333
106,1722.55135825,51676.5407475,51676,1722.5333333333333,1723.05120825,51691.5362475,51691,1723.0333333333333,1724.5847125,51737.541375,51737,1724.5666666666666,1.915738573181443,3,1,3,2,2,2,b'HB_2_frameB.png',1726.5004510731815,51795.013532195444,51795,1726.5
107,1726.510483,51795.314490000004,51795,1726.5,1727.04372375,51811.3117125,51811,1727.0333333333333,1728.5775429999999,51857.32629,51857,1728.5666666666666,1.603750871377997,2,0,7,1,2,3,b'SB_1_frameA_foil.png',1730.1812938713779,51905.43881614134,51905,1730.1666666666667
108,1730.1843235,51905.52970499999,51905,1730.1666666666667,1730.68434175,51920.5302525,51920,1730.6666666666667,1732.21791025,51966.537307499995,51966,1732.2,1.3355477680452168,2,0,2,2,1,3,b'SB_9_frameA_foil.png',1733.5534580180451,52006.60374054135,52006,1733.5333333333333
109,1733.56538475,52006.9615425,52006,1733.5333333333333,1734.0984489999998,52022.95346999999,52022,1734.0666666666666,1735.63204525,52068.9613575,52068,1735.6,1.423327747033909,1,1,2,2,2,3,b'NB_19_frameB.png',1737.0553729970338,52111.661189911014,52111,1737.0333333333333
110,1737.0730079999998,52112.190239999996,52112,1737.0666666666666,1737.572934,52127.18802,52127,1737.5666666666666,1739.10648825,52173.1946475,52173,1739.1,1.7468972513452172,3,0,3,2,1,2,b'HB_2_frameB_foil.png',1740.8533855013452,52225.60156504036,52225,1740.8333333333333
111,1740.86023525,52225.8070575,52225,1740.8333333333333,1741.34353425,52240.306027499995,52240,1741.3333333333333,1742.877373,52286.32119,52286,1742.8666666666666,1.9512557935668156,3,0,6,1,2,2,b'HB_1_frameA_foil.png',1744.8286287935668,52344.85886380701,52344,1744.8
112,1744.83475375,52345.042612499994,52345,1744.8333333333333,1745.368074,52361.04222,52361,1745.3666666666666,1746.90180825,52407.0542475,52407,1746.9,1.559990843059495,3,1,6,1,1,2,b'HB_4_frameB.png',1748.4617990930594,52453.85397279178,52453,1748.4333333333334
113,1748.47581975,52454.2745925,52454,1748.4666666666667,1749.0091117499999,52470.27335249999,52470,1749.0,1750.54268975,52516.2806925,52516,1750.5333333333333,1.549745934549719,1,0,7,1,2,3,b'NB_1_frameA_foil.png',1752.0924356845496,52562.77307053649,52562,1752.0666666666666
114,1752.1011039999999,52563.03311999999,52563,1752.1,1752.6177245,52578.531735,52578,1752.6,1754.151185,52624.53555,52624,1754.1333333333334,1.5639365224633366,1,0,7,1,2,3,b'NB_23_frameA_foil.png',1755.7151215224633,52671.4536456739,52671,1755.7
115,1755.7251165,52671.753495,52671,1755.7,1756.2750875,52688.252625,52688,1756.2666666666667,1757.8087302499998,52734.2619075,52734,1757.8,1.5239599742926657,3,0,6,1,2,2,b'HB_4_frameA_foil.png',1759.3326902242925,52779.98070672878,52779,1759.3
116,1759.3416459999999,52780.249379999994,52780,1759.3333333333333,1759.8249795,52794.749384999996,52794,1759.8,1761.35839475,52840.751842499994,52840,1761.3333333333333,1.9087626875843853,3,0,6,1,2,2,b'HB_6_frameB_foil.png',1763.2671574375843,52898.014723127526,52898,1763.2666666666667
117,1763.269851,52898.09553,52898,1763.2666666666667,1763.73641125,52912.0923375,52912,1763.7333333333333,1765.2700335,52958.101005,52958,1765.2666666666667,1.5341923541855067,1,1,7,1,1,3,b'NB_20_frameA.png',1766.8042258541855,53004.12677562556,53004,1766.8
118,1766.813516,53004.40548,53004,1766.8,1767.3466999999998,53020.401,53020,1767.3333333333333,1768.88032925,53066.409877499995,53066,1768.8666666666666,1.3977995493914932,3,1,3,2,2,2,b'HB_3_frameB.png',1770.2781287993914,53108.34386398174,53108,1770.2666666666667
119,1770.29378125,53108.8134375,53108,1770.2666666666667,1770.7770815,53123.312444999996,53123,1770.7666666666667,1772.3107095,53169.321285,53169,1772.3,0.6904351693810895,3,0,6,1,2,2,b'HB_6_frameA_foil.png',1773.0011446693811,53190.03434008143,53190,1773.0
120,1773.01332675,53190.399802500004,53190,1773.0,1773.5132565,53205.397695,53205,1773.5,1775.046752,53251.40256,53251,1775.0333333333333,1.901286926586181,1,0,7,1,2,3,b'NB_13_frameA_foil.png',1776.9480389265862,53308.44116779759,53308,1776.9333333333334
121,1776.9554285,53308.662854999995,53308,1776.9333333333334,1777.4554225,53323.662675,53323,1777.4333333333334,1778.9890865,53369.672595,53369,1778.9666666666667,1.7811327937524766,1,0,7,1,2,3,b'NB_14_frameB_foil.png',1780.7702192937525,53423.10657881257,53423,1780.7666666666667
122,1780.7873017499999,53423.6190525,53423,1780.7666666666667,1781.3205792499998,53439.61737749999,53439,1781.3,1782.854302,53485.62906,53485,1782.8333333333333,1.4411055337404832,2,1,7,1,1,3,b'SB_2_frameA.png',1784.2954075337404,53528.862226012214,53528,1784.2666666666667
123,1784.304798,53529.143939999994,53529,1784.3,1784.821311,53544.63933,53544,1784.8,1786.35506425,53590.651927499996,53590,1786.3333333333333,1.4643436295446008,2,0,2,2,1,3,b'SB_4_frameB_foil.png',1787.8194078795445,53634.58223638633,53634,1787.8
124,1787.824189,53634.72567,53634,1787.8,1788.35753575,53650.726072499994,53650,1788.3333333333333,1789.8911385,53696.734155,53696,1789.8666666666666,1.6634617898380384,2,1,2,2,2,3,b'SB_9_frameB.png',1791.554600289838,53746.63800869514,53746,1791.5333333333333
125,1791.5601545,53746.804635,53746,1791.5333333333333,1792.0434652499998,53761.30395749999,53761,1792.0333333333333,1793.57705625,53807.3116875,53807,1793.5666666666666,1.5427796136355028,2,1,7,1,1,3,b'SB_2_frameB.png',1795.1198358636354,53853.59507590906,53853,1795.1
126,1795.129784,53853.89352,53853,1795.1,1795.696348,53870.890439999996,53870,1795.6666666666667,1797.22996275,53916.8988825,53916,1797.2,1.3188657682621852,1,1,2,2,2,3,b'NB_12_frameA.png',1798.548828518262,53956.46485554786,53956,1798.5333333333333
127,1798.5608634999999,53956.825905,53956,1798.5333333333333,1799.07749575,53972.3248725,53972,1799.0666666666666,1800.611121,54018.333629999994,54018,1800.6,1.4863580393139273,1,1,7,1,1,3,b'NB_9_frameB.png',1802.0974790393138,54062.92437117941,54062,1802.0666666666666
128,1802.10121975,54063.0365925,54063,1802.1,1802.5845669999999,54077.53701,54077,1802.5666666666666,1804.1180525,54123.541574999996,54123,1804.1,2.431008475134149,3,1,6,1,1,2,b'HB_7_frameB.png',1806.5490609751341,54196.47182925402,54196,1806.5333333333333
129,1806.5591117499998,54196.77335249999,54196,1806.5333333333333,1807.0756832499999,54212.270497499994,54212,1807.0666666666666,1808.6092657499998,54258.27797249999,54258,1808.6,1.5432435725815594,1,1,7,1,1,3,b'NB_22_frameA.png',1810.1525093225814,54304.57527967744,54304,1810.1333333333334
130,1810.1687465,54305.062395,54305,1810.1666666666667,1810.7018919999998,54321.05675999999,54321,1810.7,1812.2353925,54367.061775,54367,1812.2333333333333,1.969401067122817,3,0,6,1,2,2,b'HB_1_frameA_foil.png',1814.2047935671228,54426.14380701369,54426,1814.2
131,1814.21200325,54426.3600975,54426,1814.2,1814.6953442499998,54440.86032749999,54440,1814.6666666666667,1816.22884075,54486.8652225,54486,1816.2,1.2908775550313294,1,0,7,1,2,3,b'NB_9_frameA_foil.png',1817.5197183050313,54525.59154915094,54525,1817.5
132,1817.5371894999998,54526.115685,54526,1817.5333333333333,1818.037063,54541.11189,54541,1818.0333333333333,1819.57051925,54587.1155775,54587,1819.5666666666666,1.3745627794414759,2,0,7,1,2,3,b'SB_6_frameA_foil.png',1820.9450820294414,54628.352460883245,54628,1820.9333333333334
133,1820.9531005,54628.593015,54628,1820.9333333333334,1821.486264,54644.58792,54644,1821.4666666666667,1823.0198755,54690.596265,54690,1823.0,1.4248479752568528,2,0,7,1,2,3,b'SB_3_frameB_foil.png',1824.4447234752568,54733.341704257706,54733,1824.4333333333334
134,1824.4597254999999,54733.791764999994,54733,1824.4333333333334,1825.026355,54750.790649999995,54750,1825.0,1826.5599089999998,54796.797269999995,54796,1826.5333333333333,1.8325516282347962,1,1,7,1,1,3,b'NB_6_frameA.png',1828.3924606282346,54851.77381884704,54851,1828.3666666666666
135,1828.39547675,54851.8643025,54851,1828.3666666666666,1828.8954625,54866.863874999995,54866,1828.8666666666666,1830.4290095,54912.870285,54912,1830.4,1.6587048005312681,3,0,6,1,2,2,b'HB_1_frameA_foil.png',1832.0877143005312,54962.631429015935,54962,1832.0666666666666
136,1832.0999075,54962.997225,54962,1832.0666666666666,1832.6664285,54979.992855,54979,1832.6333333333334,1834.199964,55025.99892,55025,1834.1666666666667,1.4081502092303708,2,1,7,1,1,3,b'SB_4_frameB.png',1835.6081142092303,55068.24342627691,55068,1835.6
137,1835.6169399999999,55068.5082,55068,1835.6,1836.16680525,55085.0041575,55085,1836.1666666666667,1837.700519,55131.01557,55131,1837.7,1.0364074849057943,1,1,2,2,2,3,b'NB_27_frameB.png',1838.7369264849058,55162.10779454718,55162,1838.7333333333333
138,1838.7478119999998,55162.43435999999,55162,1838.7333333333333,1839.28107775,55178.4323325,55178,1839.2666666666667,1840.81462675,55224.43880249999,55224,1840.8,1.4496601670980453,2,0,2,2,1,3,b'SB_1_frameB_foil.png',1842.264286917098,55267.928607512935,55267,1842.2333333333333
139,1842.2724282499998,55268.1728475,55268,1842.2666666666667,1842.80588175,55284.1764525,55284,1842.8,1844.33924575,55330.177372499995,55330,1844.3333333333333,1.366651449818164,3,0,6,1,2,2,b'HB_1_frameA_foil.png',1845.705897199818,55371.17691599454,55371,1845.7
140,1845.72273675,55371.682102499995,55371,1845.7,1846.20607475,55386.1822425,55386,1846.2,1847.7398162499999,55432.1944875,55432,1847.7333333333333,1.651297275093384,3,1,6,1,1,2,b'HB_3_frameA.png',1849.3911135250933,55481.7334057528,55481,1849.3666666666666
141,1849.4054365,55482.163094999996,55482,1849.4,1849.8887782499999,55496.6633475,55496,1849.8666666666666,1851.4223405,55542.670215,55542,1851.4,1.5181419290602207,1,0,2,2,1,3,b'NB_25_frameA_foil.png',1852.9404824290602,55588.214472871805,55588,1852.9333333333334
142,1852.9519692499998,55588.559077499995,55588,1852.9333333333334,1853.4352485,55603.057455,55603,1853.4333333333334,1854.9687897499998,55649.06369249999,55649,1854.9666666666667,1.9978321207454428,3,0,6,1,2,2,b'HB_3_frameB_foil.png',1856.9666218707453,55708.998656122356,55708,1856.9333333333334
143,1856.97669125,55709.3007375,55709,1856.9666666666667,1857.52664425,55725.7993275,55725,1857.5,1859.06023925,55771.8071775,55771,1859.0333333333333,1.175653388374485,1,0,2,2,1,3,b'NB_16_frameB_foil.png',1860.2358926383745,55807.07677915123,55807,1860.2333333333333
144,1860.2406075,55807.218225,55807,1860.2333333333333,1860.7405259999998,55822.21577999999,55822,1860.7333333333333,1862.2741965,55868.225895,55868,1862.2666666666667,2.0541648992802948,3,0,7,1,2,3,b'HB_8_frameA_foil.png',1864.3283613992803,55929.85084197841,55929,1864.3
145,1864.3313194999998,55929.93958499999,55929,1864.3,1864.897892,55946.93676,55946,1864.8666666666666,1866.43150625,55992.9451875,55992,1866.4,1.6131064041983336,2,0,7,1,2,3,b'SB_1_frameB_foil.png',1868.0446126541983,56041.33837962595,56041,1868.0333333333333
146,1868.0608742499999,56041.826227499994,56041,1868.0333333333333,1868.560804,56056.82412,56056,1868.5333333333333,1870.11924325,56103.5772975,56103,1870.1,1.5176586072193459,2,0,7,1,2,3,b'SB_5_frameA_foil.png',1871.6369018572193,56149.10705571658,56149,1871.6333333333334
147,1871.64220525,56149.2661575,56149,1871.6333333333334,1872.1921889999999,56165.76566999999,56165,1872.1666666666667,1873.725766,56211.77298,56211,1873.7,1.4360206989804283,2,0,7,1,2,3,b'SB_8_frameA_foil.png',1875.1617866989804,56254.853600969414,56254,1875.1333333333334
148,1875.16885775,56255.0657325,56255,1875.1666666666667,1875.65213125,56269.563937499996,56269,1875.6333333333334,1877.1857615,56315.572844999995,56315,1877.1666666666667,2.0302450424060225,3,1,7,1,1,3,b'HB_1_frameB.png',1879.216006542406,56376.480196272176,56376,1879.2
149,1879.22033025,56376.6099075,56376,1879.2,1879.7535942499999,56392.607827499996,56392,1879.7333333333333,1881.2872519999999,56438.61756,56438,1881.2666666666667,1.5766500894678757,2,1,7,1,1,3,b'SB_2_frameB.png',1882.8639020894677,56485.917062684035,56485,1882.8333333333333
150,1882.8789949999998,56486.369849999995,56486,1882.8666666666666,1883.36213075,56500.8639225,56500,1883.3333333333333,1884.89581925,56546.8745775,56546,1884.8666666666666,1.576479495735839,2,0,7,1,2,3,b'SB_4_frameA_foil.png',1886.4722987457358,56594.168962372074,56594,1886.4666666666667
151,1886.4836867499998,56594.5106025,56594,1886.4666666666667,1887.0502474999998,56611.507424999996,56611,1887.0333333333333,1888.58407225,56657.5221675,56657,1888.5666666666666,1.5821388476761058,1,1,7,1,1,3,b'NB_2_frameA.png',1890.166211097676,56704.98633293028,56704,1890.1333333333334
152,1890.18106875,56705.4320625,56705,1890.1666666666667,1890.6644192499998,56719.932577499996,56719,1890.6333333333334,1892.198071,56765.94213,56765,1892.1666666666667,1.4515943006845191,1,0,7,1,2,3,b'NB_20_frameB_foil.png',1893.6496653006845,56809.48995902054,56809,1893.6333333333334
153,1893.6591657499998,56809.774972499996,56809,1893.6333333333334,1894.20904875,56826.2714625,56826,1894.2,1895.7425469999998,56872.27640999999,56872,1895.7333333333333,1.2058174961712211,2,1,7,1,1,3,b'SB_9_frameA.png',1896.948364496171,56908.45093488513,56908,1896.9333333333334
154,1896.9538249999998,56908.61474999999,56908,1896.9333333333334,1897.4870214999999,56924.61064499999,56924,1897.4666666666667,1899.0206677499998,56970.620032499995,56970,1899.0,1.0959356754319742,3,1,7,1,1,3,b'HB_8_frameB.png',1900.1166034254318,57003.498102762955,57003,1900.1
155,1900.12038375,57003.6115125,57003,1900.1,1900.65376075,57019.6128225,57019,1900.6333333333334,1902.187256,57065.617679999996,57065,1902.1666666666667,1.0410669499542564,1,1,7,1,1,3,b'NB_3_frameB.png',1903.2283229499542,57096.84968849862,57096,1903.2
156,1903.240965,57097.22895,57097,1903.2333333333333,1903.7576175,57112.728525,57112,1903.7333333333333,1905.29115175,57158.7345525,57158,1905.2666666666667,1.8187423708150163,3,0,7,1,2,3,b'HB_1_frameB_foil.png',1907.109894120815,57213.29682362445,57213,1907.1
157,1907.11446325,57213.4338975,57213,1907.1,1907.6810715,57230.432145,57230,1907.6666666666667,1909.2145959999998,57276.43788,57276,1909.2,1.470055484562181,2,1,7,1,1,3,b'SB_6_frameB.png',1910.684651484562,57320.53954453686,57320,1910.6666666666667
158,1910.6904184999999,57320.712555,57320,1910.6666666666667,1911.22360325,57336.7080975,57336,1911.2,1912.75734675,57382.720402499996,57382,1912.7333333333333,1.7734669502824545,2,0,7,1,2,3,b'SB_5_frameB_foil.png',1914.5308137002824,57435.92441100847,57435,1914.5
159,1914.54484175,57436.345252499996,57436,1914.5333333333333,1915.02815825,57450.8447475,57450,1915.0,1916.5618392499998,57496.855177499994,57496,1916.5333333333333,1.546148267108947,2,1,7,1,1,3,b'SB_1_frameA.png',1918.1079875171088,57543.23962551326,57543,1918.1
160,1918.11338525,57543.4015575,57543,1918.1,1918.646568,57559.397039999996,57559,1918.6333333333334,1920.18018775,57605.4056325,57605,1920.1666666666667,1.300914650899358,3,0,7,1,2,3,b'HB_4_frameA_foil.png',1921.4811024008993,57644.43307202698,57644,1921.4666666666667
161,1921.49126925,57644.7380775,57644,1921.4666666666667,1921.9912527499998,57659.7375825,57659,1921.9666666666667,1923.52493025,57705.747907499994,57705,1923.5,1.5662805521860719,1,0,2,2,1,3,b'NB_10_frameB_foil.png',1925.091210802186,57752.736324065576,57752,1925.0666666666666
162,1925.1059859999998,57753.179579999996,57753,1925.1,1925.67247075,57770.1741225,57770,1925.6666666666667,1927.2060589999999,57816.181769999996,57816,1927.2,1.3971387480851263,2,1,7,1,1,3,b'SB_4_frameB.png',1928.603197748085,57858.09593244255,57858,1928.6
163,1928.6096364999999,57858.28909499999,57858,1928.6,1929.19282725,57875.784817499996,57875,1929.1666666666667,1930.72633075,57921.7899225,57921,1930.7,1.4574845749884844,2,0,7,1,2,3,b'SB_2_frameB_foil.png',1932.1838153249885,57965.514459749655,57965,1932.1666666666667
164,1932.20111275,57966.0333825,57966,1932.2,1932.7510969999998,57982.532909999994,57982,1932.7333333333333,1934.28469525,58028.5408575,58028,1934.2666666666667,1.2300760673824698,3,0,2,2,1,3,b'HB_7_frameB_foil.png',1935.5147713173824,58065.44313952147,58065,1935.5
165,1935.52529925,58065.7589775,58065,1935.5,1936.0419232499999,58081.2576975,58081,1936.0333333333333,1937.575476,58127.26428,58127,1937.5666666666666,0.6915205711266026,3,0,7,1,2,3,b'HB_3_frameA_foil.png',1938.2669965711266,58148.0098971338,58148,1938.2666666666667
166,1938.2834107499998,58148.5023225,58148,1938.2666666666667,1938.8165609999999,58164.49683,58164,1938.8,1940.350262,58210.50786,58210,1940.3333333333333,1.6284472832921892,2,0,7,1,2,3,b'SB_7_frameB_foil.png',1941.9787092832921,58259.36127849876,58259,1941.9666666666667
167,1941.9851032499998,58259.55309749999,58259,1941.9666666666667,1942.518345,58275.55035,58275,1942.5,1944.05205375,58321.561612499994,58321,1944.0333333333333,1.2841768134385347,1,1,7,1,1,3,b'NB_26_frameA.png',1945.3362305634384,58360.08691690315,58360,1945.3333333333333
168,1945.3493675,58360.481025,58360,1945.3333333333333,1945.816187,58374.485609999996,58374,1945.8,1947.349542,58420.48626,58420,1947.3333333333333,1.5924495777580887,1,0,7,1,2,3,b'NB_22_frameB_foil.png',1948.941991577758,58468.25974733274,58468,1948.9333333333334
169,1948.9506875,58468.520625,58468,1948.9333333333334,1949.5172619999998,58485.51785999999,58485,1949.5,1951.0507779999998,58531.52333999999,58531,1951.0333333333333,1.8592962257098407,1,1,2,2,2,3,b'NB_10_frameA.png',1952.9100742257096,58587.30222677129,58587,1952.9
170,1952.92796075,58587.8388225,58587,1952.9,1953.4278304999998,58602.83491499999,58602,1953.4,1954.961519,58648.84557,58648,1954.9333333333334,1.9512312423903495,1,1,7,1,1,3,b'NB_30_frameA.png',1956.9127502423903,58707.38250727171,58707,1956.9
171,1956.919486,58707.58458,58707,1956.9,1957.4695352499998,58724.0860575,58724,1957.4666666666667,1959.003014,58770.09041999999,58770,1959.0,1.454091138439253,2,0,7,1,2,3,b'SB_3_frameA_foil.png',1960.4571051384391,58813.71315415317,58813,1960.4333333333334
172,1960.46540125,58813.9620375,58813,1960.4333333333334,1961.015299,58830.45897,58830,1961.0,1962.5490532499998,58876.47159749999,58876,1962.5333333333333,1.542526975972578,1,1,2,2,2,3,b'NB_4_frameA.png',1964.0915802259724,58922.74740677917,58922,1964.0666666666666
173,1964.0987942499999,58922.963827499996,58922,1964.0666666666666,1964.5820975,58937.462925,58937,1964.5666666666666,1966.1157389999998,58983.472169999994,58983,1966.1,1.5712451750878245,2,0,2,2,1,3,b'SB_4_frameA_foil.png',1967.6869841750877,59030.60952525263,59030,1967.6666666666667
174,1967.6921705,59030.765115,59030,1967.6666666666667,1968.275396,59048.26188,59048,1968.2666666666667,1969.8090727499998,59094.2721825,59094,1969.8,1.4828086231136695,2,1,2,2,2,3,b'SB_5_frameA.png',1971.2918813731135,59138.75644119341,59138,1971.2666666666667
175,1971.2948095,59138.844285,59138,1971.2666666666667,1971.77801525,59153.3404575,59153,1971.7666666666667,1973.3116029999999,59199.34809,59199,1973.3,1.8244026369648054,3,1,2,2,2,3,b'HB_6_frameB.png',1975.1360056369647,59254.080169108944,59254,1975.1333333333334
176,1975.1466315,59254.398945,59254,1975.1333333333334,1975.696534,59270.89602,59270,1975.6666666666667,1977.2300819999998,59316.90246,59316,1977.2,2.1185551481321454,3,0,2,2,1,3,b'HB_6_frameB_foil.png',1979.348637148132,59380.45911444396,59380,1979.3333333333333
177,1979.35881425,59380.7644275,59380,1979.3333333333333,1979.8998992499999,59396.9969775,59396,1979.8666666666666,1981.402744,59442.08232,59442,1981.4,1.4961422942578793,2,1,5,1,1,1,b'SB_30_frameA.png',1982.8988862942579,59486.96658882774,59486,1982.8666666666666
178,1982.9593745,59488.781235,59488,1982.9333333333334,1983.50222575,59505.0667725,59505,1983.5,1985.021264,59550.63792,59550,1985.0,1.461085207061842,2,0,3,2,1,2,b'SB_30_frameB_foil.png',1986.4823492070618,59594.470476211856,59594,1986.4666666666667
179,1986.55708025,59596.712407499996,59596,1986.5333333333333,1987.0841325,59612.523975,59612,1987.0666666666666,1988.6075094999999,59658.22528499999,59658,1988.6,0.5301984834950417,3,1,3,2,2,2,b'HB_30_frameB.png',1989.137707983495,59674.131239504844,59674,1989.1333333333334
180,1989.2091395,59676.274185,59676,1989.2,1989.7926714999999,59693.780145,59693,1989.7666666666667,1991.302962,59739.088859999996,59739,1991.3,1.0003612453583628,3,0,6,1,2,2,b'HB_30_frameA_foil.png',1992.3033232453583,59769.09969736075,59769,1992.3
