trial_num,fixcross_time,fixation_HZ,fixation_bin,fixation_regarded,start_time,Fstart_HZ,Fstart_bin,Fstart_regarded,stop_time,Fstop_HZ,Fstop_bin,Fstop_regarded,RT,boundary_type,stimuli_type,resp_value,old_new,accuracy,confidence,frameName,response_time,response_HZ,response_bin,response_regarded
1,1227.6658137499999,36829.9744125,36829,1227.6333333333334,1228.14905325,36844.4715975,36844,1228.1333333333334,1229.71057325,36891.3171975,36891,1229.7,0.0,3,0,1,0,1,0,b'HB_9_frameA_foil.png',1229.71057325,36891.3171975,36891,1229.7
2,1228.07355575,36842.2066725,36842,1228.0666666666666,1228.64010125,36859.2030375,36859,1228.6333333333334,1230.1740687499998,36905.2220625,36905,1230.1666666666667,-0.5802059053676203,3,1,3,2,2,2,b'HB_6_frameA.png',1229.5938628446322,36887.81588533897,36887,1229.5666666666666
3,1229.6213695,36888.641084999996,36888,1229.6,1230.15458075,36904.637422499996,36904,1230.1333333333334,1231.68876775,36950.6630325,36950,1231.6666666666667,4.377369183624978,3,0,6,1,2,2,b'HB_2_frameA_foil.png',1236.0661369336249,37081.98410800875,37081,1236.0333333333333
4,1236.0748815,37082.246445,37082,1236.0666666666666,1236.541464,37096.24391999999,37096,1236.5333333333333,1238.07808725,37142.3426175,37142,1238.0666666666666,2.7239940675499383,3,1,2,2,2,3,b'HB_7_frameB.png',1240.80208131755,37224.0624395265,37224,1240.8
5,1240.837754,37225.13262,37225,1240.8333333333333,1241.4043112499999,37242.129337499995,37242,1241.4,1242.95824775,37288.7474325,37288,1242.9333333333334,0.27924707491183653,2,1,3,2,2,2,b'SB_4_frameA.png',1243.237494824912,37297.124844747355,37297,1243.2333333333333
6,1243.2501002499998,37297.503007499996,37297,1243.2333333333333,1243.7166785,37311.500355,37311,1243.7,1245.2511694999998,37357.535084999996,37357,1245.2333333333333,-1.0355366967851296,3,1,2,2,2,3,b'HB_2_frameB.png',1244.2156328032147,37326.46898409644,37326,1244.2
7,1244.238856,37327.16568,37327,1244.2333333333333,1244.73875125,37342.1625375,37342,1244.7333333333333,1246.2734727499999,37388.2041825,37388,1246.2666666666667,0.9524943312280811,3,0,7,1,2,3,b'HB_5_frameB_foil.png',1247.225967081228,37416.77901243684,37416,1247.2
8,1247.2426102499999,37417.2783075,37417,1247.2333333333333,1247.74251575,37432.2754725,37432,1247.7333333333333,1249.2770222499998,37478.310667499994,37478,1249.2666666666667,3.2688172400958138,2,1,3,2,2,2,b'SB_3_frameB.png',1252.5458394900957,37576.37518470287,37576,1252.5333333333333
9,1252.5512127499999,37576.536382499995,37576,1252.5333333333333,1253.1011027499999,37593.0330825,37593,1253.1,1254.635935,37639.078050000004,37639,1254.6333333333334,-1.2687442583992379,1,1,3,2,2,2,b'NB_24_frameA.png',1253.3671907416008,37601.01572224803,37601,1253.3666666666666
10,1253.3754099999999,37601.262299999995,37601,1253.3666666666666,1253.8753124999998,37616.259374999994,37616,1253.8666666666666,1255.409819,37662.29457,37662,1255.4,0.9894994236092316,1,0,7,1,2,3,b'NB_7_frameA_foil.png',1256.3993184236092,37691.979552708275,37691,1256.3666666666666
11,1256.40706675,37692.212002500004,37692,1256.4,1256.906955,37707.20865,37707,1256.9,1258.44060625,37753.2181875,37753,1258.4333333333334,1.3863220821804134,2,1,2,2,2,3,b'SB_7_frameA.png',1259.8269283321804,37794.807849965415,37794,1259.8
12,1259.832723,37794.98169,37794,1259.8,1260.3326137499998,37809.97841249999,37809,1260.3,1261.8663325,37855.989975,37855,1261.8333333333333,1.2190902041475056,2,1,2,2,2,3,b'SB_2_frameA.png',1263.0854227041475,37892.56268112442,37892,1263.0666666666666
13,1263.09997675,37892.9993025,37892,1263.0666666666666,1263.5998705,37907.996115,37907,1263.5666666666666,1265.134652,37954.03956,37954,1265.1333333333334,1.60341880004853,1,1,2,2,2,3,b'NB_19_frameB.png',1266.7380708000485,38002.14212400145,38002,1266.7333333333333
14,1266.75478875,38002.6436625,38002,1266.7333333333333,1267.3213365,38019.640094999995,38019,1267.3,1268.856121,38065.68363,38065,1268.8333333333333,0.7503070606617257,1,1,2,2,2,3,b'NB_12_frameA.png',1269.6064280606618,38088.19284181985,38088,1269.6
15,1269.6184395,38088.553185,38088,1269.6,1270.1516655,38104.549965,38104,1270.1333333333334,1271.68634275,38150.5902825,38150,1271.6666666666667,-2.8821159876824822,1,1,2,2,2,3,b'NB_2_frameA.png',1268.8042267623175,38064.12680286953,38064,1268.8
16,1268.8111757499998,38064.33527249999,38064,1268.8,1269.32772725,38079.8318175,38079,1269.3,1270.862343,38125.87029,38125,1270.8333333333333,2.1123851180891506,3,0,7,1,2,3,b'HB_3_frameB_foil.png',1272.9747281180892,38189.24184354267,38189,1272.9666666666667
17,1272.98388575,38189.5165725,38189,1272.9666666666667,1273.4503197499998,38203.50959249999,38203,1273.4333333333334,1274.984413,38249.53239,38249,1274.9666666666667,1.438213525529136,2,0,7,1,2,3,b'SB_9_frameA_foil.png',1276.422626525529,38292.678795765874,38292,1276.4
18,1276.4327389999999,38292.982169999996,38292,1276.4,1276.9326305,38307.978915,38307,1276.9,1278.46756575,38354.026972499996,38354,1278.4666666666667,0.9092757197213359,3,0,7,1,2,3,b'HB_1_frameA_foil.png',1279.3768414697213,38381.305244091636,38381,1279.3666666666666
19,1279.389035,38381.67105,38381,1279.3666666666666,1279.9722675,38399.168025,38399,1279.9666666666667,1281.50648125,38445.1944375,38445,1281.5,-2.452202852218761,1,0,7,1,2,3,b'NB_11_frameA_foil.png',1279.0542783977812,38371.62835193344,38371,1279.0333333333333
20,1279.07454525,38372.2363575,38372,1279.0666666666666,1279.67442725,38390.2328175,38390,1279.6666666666667,1281.209118,38436.27354,38436,1281.2,2.040126479114406,1,0,7,1,2,3,b'NB_3_frameA_foil.png',1283.2492444791144,38497.477334373434,38497,1283.2333333333333
21,1283.259121,38497.77363,38497,1283.2333333333333,1283.792348,38513.77044,38513,1283.7666666666667,1285.326767,38559.80301,38559,1285.3,-2.438259448565077,2,0,7,1,2,3,b'SB_2_frameB_foil.png',1282.888507551435,38486.65522654305,38486,1282.8666666666666
22,1282.906878,38487.20634,38487,1282.9,1283.4067639999998,38502.202919999996,38502,1283.4,1284.94163725,38548.2491175,38548,1284.9333333333334,4.565496230672579,3,1,3,2,2,2,b'HB_8_frameB.png',1289.5071334806726,38685.21400442018,38685,1289.5
23,1289.5229245,38685.687735,38685,1289.5,1290.0394932499999,38701.1847975,38701,1290.0333333333333,1291.573377,38747.20131,38747,1291.5666666666666,0.058627986669307575,2,0,6,1,2,2,b'SB_5_frameB_foil.png',1291.6320049866692,38748.960149600076,38748,1291.6
24,1291.63761725,38749.1285175,38749,1291.6333333333334,1292.104188,38763.12564,38763,1292.1,1293.63889225,38809.1667675,38809,1293.6333333333334,1.2335236012731912,2,0,6,1,2,2,b'SB_8_frameB_foil.png',1294.8724158512732,38846.172475538195,38846,1294.8666666666666
25,1294.8821759999998,38846.46528,38846,1294.8666666666666,1295.398745,38861.96235,38861,1295.3666666666666,1296.9334952499999,38908.0048575,38908,1296.9333333333334,0.46521516077336855,2,1,2,2,2,3,b'SB_3_frameA.png',1297.3987104107732,38921.9613123232,38921,1297.3666666666666
26,1297.41839125,38922.5517375,38922,1297.4,1297.9182544999999,38937.547634999995,38937,1297.9,1299.45234425,38983.5703275,38983,1299.4333333333334,0.34323292231420055,1,1,2,2,2,3,b'NB_6_frameA.png',1299.795577172314,38993.867315169424,38993,1299.7666666666667
27,1299.8151142499999,38994.4534275,38994,1299.8,1300.41499075,39012.4497225,39012,1300.4,1301.949889,39058.49667,39058,1301.9333333333334,0.0,3,0,1,0,1,0,b'HB_5_frameB_foil.png',1301.949889,39058.49667,39058,1301.9333333333334
28,1303.30682,39099.2046,39099,1303.3,1303.8900635,39116.701905,39116,1303.8666666666666,1305.4244915,39162.734744999994,39162,1305.4,-1.3041473084304016,1,1,2,2,2,3,b'NB_11_frameB.png',1304.1203441915695,39123.61032574708,39123,1304.1
29,1304.12867175,39123.8601525,39123,1304.1,1304.7285419999998,39141.85625999999,39141,1304.7,1306.2627297499998,39187.881892499994,39187,1306.2333333333333,-0.09639571243315004,2,0,6,1,2,2,b'SB_4_frameA_foil.png',1306.1663340375667,39184.990021127,39184,1306.1333333333334
30,1306.1815335,39185.446005,39185,1306.1666666666667,1306.71476225,39201.442867499994,39201,1306.7,1308.249624,39247.48872,39247,1308.2333333333333,0.0,3,1,1,0,1,0,b'HB_1_frameB.png',1308.249624,39247.48872,39247,1308.2333333333333
31,1309.0725,39272.175,39272,1309.0666666666666,1309.60572975,39288.171892499995,39288,1309.6,1311.140492,39334.21476,39334,1311.1333333333334,1.319839170188061,2,1,3,2,2,2,b'SB_1_frameB.png',1312.460331170188,39373.809935105644,39373,1312.4333333333334
32,1312.47197725,39374.1593175,39374,1312.4666666666667,1312.9718727499999,39389.156182499995,39389,1312.9666666666667,1314.50669475,39435.200842499995,39435,1314.5,0.0,2,1,1,0,1,0,b'SB_5_frameB.png',1314.50669475,39435.200842499995,39435,1314.5
33,1311.263336,39337.90008,39337,1311.2333333333333,1311.74657125,39352.3971375,39352,1311.7333333333333,1313.28126825,39398.4380475,39398,1313.2666666666667,-2.5159374172217213,2,1,3,2,2,2,b'SB_1_frameB.png',1310.7653308327783,39322.95992498335,39322,1310.7333333333333
34,1310.77760025,39323.3280075,39323,1310.7666666666667,1311.2775015,39338.325045,39338,1311.2666666666667,1312.8113205,39384.339615,39384,1312.8,0.7169916196726263,2,0,6,1,2,2,b'SB_2_frameA_foil.png',1313.5283121196726,39405.849363590176,39405,1313.5
35,1313.53516825,39406.0550475,39406,1313.5333333333333,1314.0684234999999,39422.052704999995,39422,1314.0666666666666,1315.6031615,39468.094845,39468,1315.6,6.373129568732111,1,0,6,1,2,2,b'NB_29_frameA_foil.png',1321.976291068732,39659.28873206196,39659,1321.9666666666667
36,1321.99273225,39659.7819675,39659,1321.9666666666667,1322.50929525,39675.2788575,39675,1322.5,1324.043733,39721.31199,39721,1324.0333333333333,0.0,2,0,1,0,1,0,b'SB_2_frameB_foil.png',1324.043733,39721.31199,39721,1324.0333333333333
37,1322.0986225,39662.958674999994,39662,1322.0666666666666,1322.68183,39680.4549,39680,1322.6666666666667,1324.21604775,39726.4814325,39726,1324.2,0.3335511805926217,3,1,2,2,2,3,b'HB_1_frameB.png',1324.5495989305925,39736.487967917776,39736,1324.5333333333333
38,1324.5539629999998,39736.61889,39736,1324.5333333333333,1325.0538745,39751.616234999994,39751,1325.0333333333333,1326.5881837499999,39797.6455125,39797,1326.5666666666666,0.5705819154827623,3,1,3,2,2,2,b'HB_2_frameA.png',1327.1587656654826,39814.76296996448,39814,1327.1333333333334
39,1327.17777325,39815.3331975,39815,1327.1666666666667,1327.7110005,39831.330015,39831,1327.7,1329.24527975,39877.3583925,39877,1329.2333333333333,3.535535933668143,1,1,3,2,2,2,b'NB_14_frameA.png',1332.7808156836682,39983.42447051004,39983,1332.7666666666667
40,1332.7943652499998,39983.830957499995,39983,1332.7666666666667,1333.31092575,39999.3277725,39999,1333.3,1334.84523,40045.3569,40045,1334.8333333333333,2.5108738401322626,1,0,6,1,2,2,b'NB_18_frameB_foil.png',1337.3561038401322,40120.68311520397,40120,1337.3333333333333
41,1337.3685375,40121.056125,40121,1337.3666666666666,1337.8851009999998,40136.553029999995,40136,1337.8666666666666,1339.420124,40182.60372,40182,1339.4,1.2127328012720682,3,1,3,2,2,2,b'HB_1_frameB.png',1340.632856801272,40218.98570403816,40218,1340.6
42,1340.644902,40219.34706,40219,1340.6333333333334,1341.211468,40236.344039999996,40236,1341.2,1342.746113,40282.383389999995,40282,1342.7333333333333,0.05272372715990059,2,1,3,2,2,2,b'SB_1_frameB.png',1342.7988367271598,40283.96510181479,40283,1342.7666666666667
43,1342.81397625,40284.4192875,40284,1342.8,1343.33054425,40299.9163275,40299,1343.3,1344.8648497499998,40345.945492499995,40345,1344.8333333333333,0.25273824682517443,2,1,3,2,2,2,b'SB_4_frameB.png',1345.117587996825,40353.52763990475,40353,1345.1
44,1345.1242352499999,40353.72705749999,40353,1345.1,1345.69078275,40370.7234825,40370,1345.6666666666667,1347.22502325,40416.7506975,40416,1347.2,0.5248255150654586,2,1,2,2,2,3,b'SB_2_frameA.png',1347.7498487650655,40432.49546295196,40432,1347.7333333333333
45,1347.7624147499998,40432.8724425,40432,1347.7333333333333,1348.2456515,40447.369544999994,40447,1348.2333333333333,1349.7803095,40493.409285,40493,1349.7666666666667,0.0,2,0,1,0,1,0,b'SB_7_frameB_foil.png',1349.7803095,40493.409285,40493,1349.7666666666667
46,1351.4012415,40542.037245,40542,1351.4,1351.95113625,40558.5340875,40558,1351.9333333333334,1353.484927,40604.54781,40604,1353.4666666666667,1.1045886246138252,1,1,3,2,2,2,b'NB_13_frameB.png',1354.5895156246138,40637.68546873841,40637,1354.5666666666666
47,1354.59370875,40637.8112625,40637,1354.5666666666666,1355.14360775,40654.3082325,40654,1355.1333333333334,1356.6780185,40700.340555,40700,1356.6666666666667,0.8303022404143121,1,1,3,2,2,2,b'NB_20_frameA.png',1357.5083207404143,40725.24962221243,40725,1357.5
48,1357.5132125,40725.396375,40725,1357.5,1357.96313225,40738.8939675,40738,1357.9333333333334,1359.49764975,40784.9294925,40784,1359.4666666666667,1.2437244133616332,2,0,7,1,2,3,b'SB_1_frameB_foil.png',1360.7413741633616,40822.24122490085,40822,1360.7333333333333
49,1360.75332925,40822.5998775,40822,1360.7333333333333,1361.3032234999998,40839.096704999996,40839,1361.3,1362.8377767499999,40885.1333025,40885,1362.8333333333333,-2.6139636347215855,3,1,3,2,2,2,b'HB_2_frameA.png',1360.2238131152783,40806.71439345835,40806,1360.2
50,1360.24545,40807.3635,40807,1360.2333333333333,1360.76202025,40822.8606075,40822,1360.7333333333333,1362.2966055,40868.898165,40868,1362.2666666666667,3.159649317516596,3,1,3,2,2,2,b'HB_4_frameB.png',1365.4562548175165,40963.6876445255,40963,1365.4333333333334
51,1365.47484025,40964.2452075,40964,1365.4666666666667,1365.9913972499999,40979.741917499996,40979,1365.9666666666667,1367.5252495,41025.757485,41025,1367.5,5.719808833120624,1,0,6,1,2,2,b'NB_19_frameA_foil.png',1373.2450583331206,41197.35174999362,41197,1373.2333333333333
52,1373.2507185,41197.521555,41197,1373.2333333333333,1373.7839474999998,41213.518424999995,41213,1373.7666666666667,1375.31777775,41259.5333325,41259,1375.3,1.109605481979088,3,0,6,1,2,2,b'HB_1_frameB_foil.png',1376.427383231979,41292.821496959376,41292,1376.4
53,1376.4382947499998,41293.1488425,41293,1376.4333333333334,1376.95485775,41308.6457325,41308,1376.9333333333334,1378.489486,41354.68458,41354,1378.4666666666667,-0.8846216603124049,1,0,7,1,2,3,b'NB_21_frameA_foil.png',1377.6048643396875,41328.14593019063,41328,1377.6
54,1377.62418975,41328.7256925,41328,1377.6,1378.15742525,41344.7227575,41344,1378.1333333333334,1379.6921645,41390.764935,41390,1379.6666666666667,2.9583961819444085,1,0,7,1,2,3,b'NB_27_frameA_foil.png',1382.6505606819444,41479.51682045833,41479,1382.6333333333334
55,1382.6619114999999,41479.857345,41479,1382.6333333333334,1383.19514675,41495.8544025,41495,1383.1666666666667,1384.72875475,41541.8626425,41541,1384.7,0.0,1,0,1,0,1,0,b'NB_4_frameB_foil.png',1384.72875475,41541.8626425,41541,1384.7
56,1387.02909075,41610.872722500004,41610,1387.0,1387.59564725,41627.8694175,41627,1387.5666666666666,1389.13045075,41673.9135225,41673,1389.1,2.469255712348968,1,0,7,1,2,3,b'NB_13_frameA_foil.png',1391.5997064623489,41747.99119387047,41747,1391.5666666666666
57,1391.61136025,41748.3408075,41748,1391.6,1392.1612435,41764.837305,41764,1392.1333333333334,1393.69569725,41810.8709175,41810,1393.6666666666667,2.5128737804479897,2,1,2,2,2,3,b'SB_1_frameA.png',1396.208571030448,41886.25713091344,41886,1396.2
58,1396.22289925,41886.6869775,41886,1396.2,1396.73946,41902.1838,41902,1396.7333333333333,1398.2734365,41948.203095,41948,1398.2666666666667,0.9515720330382464,1,1,2,2,2,3,b'NB_25_frameB.png',1399.2250085330381,41976.750255991145,41976,1399.2
59,1399.2374375,41977.123125,41977,1399.2333333333333,1399.78733025,41993.6199075,41993,1399.7666666666667,1401.321773,42039.65319,42039,1401.3,0.8420513317541918,2,1,3,2,2,2,b'SB_3_frameA.png',1402.163824331754,42064.91472995262,42064,1402.1333333333334
60,1402.172701,42065.18103,42065,1402.1666666666667,1402.68926675,42080.6780025,42080,1402.6666666666667,1404.222953,42126.68859,42126,1404.2,5.075267432068358,1,1,3,2,2,2,b'NB_3_frameB.png',1409.2982204320683,42278.94661296205,42278,1409.2666666666667
61,1409.316088,42279.48264,42279,1409.3,1409.88265175,42296.4795525,42296,1409.8666666666666,1411.4173664999998,42342.520995,42342,1411.4,4.705162840502453,3,0,6,1,2,2,b'HB_5_frameA_foil.png',1416.1225293405023,42483.67588021507,42483,1416.1
62,1416.12779525,42483.8338575,42483,1416.1,1416.6276725,42498.830175,42498,1416.6,1418.1625952499999,42544.877857499996,42544,1418.1333333333334,3.52536180842435,1,1,3,2,2,2,b'NB_30_frameA.png',1421.6879570584242,42650.63871175273,42650,1421.6666666666667
63,1421.6969955,42650.909865,42650,1421.6666666666667,1422.2302252499999,42666.90675749999,42666,1422.2,1423.76473175,42712.9419525,42712,1423.7333333333333,-2.188321696128696,1,1,2,2,2,3,b'NB_9_frameB.png',1421.5764100538713,42647.29230161614,42647,1421.5666666666666
64,1421.580348,42647.41044,42647,1421.5666666666666,1422.09689525,42662.9068575,42662,1422.0666666666666,1423.63076875,42708.9230625,42708,1423.6,3.6912949921534164,3,0,6,1,2,2,b'HB_1_frameA_foil.png',1427.3220637421534,42819.6619122646,42819,1427.3
65,1427.3361324999998,42820.083974999994,42820,1427.3333333333333,1427.86934275,42836.0802825,42836,1427.8666666666666,1429.4041405,42882.124215,42882,1429.4,-0.8667188495892333,3,0,6,1,2,2,b'HB_2_frameB_foil.png',1428.5374216504108,42856.12264951233,42856,1428.5333333333333
66,1428.5528265,42856.584795,42856,1428.5333333333333,1429.01940225,42870.5820675,42870,1429.0,1430.55412875,42916.6238625,42916,1430.5333333333333,1.8317344005045015,1,0,6,1,2,2,b'NB_20_frameB_foil.png',1432.3858631505045,42971.57589451513,42971,1432.3666666666666
67,1432.3944755,42971.834265,42971,1432.3666666666666,1432.944373,42988.331190000004,42988,1432.9333333333334,1434.47819025,43034.3457075,43034,1434.4666666666667,2.4078723435959546,1,1,3,2,2,2,b'NB_10_frameA.png',1436.8860625935959,43106.581877807876,43106,1436.8666666666666
68,1436.9037085,43107.111254999996,43107,1436.9,1437.48692725,43124.6078175,43124,1437.4666666666667,1439.0216424999999,43170.649274999996,43170,1439.0,2.5571828206593636,3,0,6,1,2,2,b'HB_4_frameA_foil.png',1441.5788253206592,43247.36475961978,43247,1441.5666666666666
69,1441.5856617499999,43247.5698525,43247,1441.5666666666666,1442.185544,43265.56632,43265,1442.1666666666667,1443.7194475,43311.583425,43311,1443.7,3.0047460306959692,2,1,3,2,2,2,b'SB_6_frameA.png',1446.7241935306959,43401.725805920876,43401,1446.7
70,1446.734512,43402.03536,43402,1446.7333333333333,1447.26775,43418.0325,43418,1447.2666666666667,1448.801716,43464.051479999995,43464,1448.8,2.539100781228626,2,1,2,2,2,3,b'SB_2_frameA.png',1451.3408167812286,43540.22450343685,43540,1451.3333333333333
71,1451.35429875,43540.6289625,43540,1451.3333333333333,1451.8708757499999,43556.1262725,43556,1451.8666666666666,1453.4052057499998,43602.15617249999,43602,1453.4,0.7616320909291971,1,0,7,1,2,3,b'NB_28_frameB_foil.png',1454.166837840929,43625.00513522787,43625,1454.1666666666667
72,1454.18733075,43625.6199225,43625,1454.1666666666667,1454.73720875,43642.1162625,43642,1454.7333333333333,1456.2718197499998,43688.154592499995,43688,1456.2666666666667,0.0,3,1,1,0,1,0,b'HB_9_frameB.png',1456.2718197499998,43688.154592499995,43688,1456.2666666666667
73,1455.6022345,43668.067035,43668,1455.6,1456.1687797499999,43685.0633925,43685,1456.1666666666667,1457.70316325,43731.0948975,43731,1457.7,0.0,1,0,1,0,1,0,b'NB_10_frameB_foil.png',1457.70316325,43731.0948975,43731,1457.7
74,1459.27028275,43778.1084825,43778,1459.2666666666667,1459.80351625,43794.1054875,43794,1459.8,1461.337799,43840.133969999995,43840,1461.3333333333333,1.4961980596272042,2,0,7,1,2,3,b'SB_1_frameB_foil.png',1462.833997059627,43885.01991178881,43885,1462.8333333333333
75,1462.8492234999999,43885.476704999994,43885,1462.8333333333333,1463.41578375,43902.4735125,43902,1463.4,1464.949747,43948.49241,43948,1464.9333333333334,3.9862909608054906,1,1,2,2,2,3,b'NB_8_frameA.png',1468.9360379608054,44068.081138824164,44068,1468.9333333333334
76,1468.944567,44068.33701,44068,1468.9333333333334,1469.444466,44083.333979999996,44083,1469.4333333333334,1470.97855325,44129.3565975,44129,1470.9666666666667,4.48038101590646,2,0,6,1,2,2,b'SB_3_frameA_foil.png',1475.4589342659065,44263.768027977196,44263,1475.4333333333334
77,1475.47249225,44264.1747675,44264,1475.4666666666667,1475.9723769999998,44279.17131,44279,1475.9666666666667,1477.5070985,44325.212955,44325,1477.5,-0.6183596727933036,3,0,6,1,2,2,b'HB_4_frameB_foil.png',1476.8887388272067,44306.6621648162,44306,1476.8666666666666
78,1476.8942997499998,44306.8289925,44306,1476.8666666666666,1477.44418725,44323.3256175,44323,1477.4333333333334,1478.9788525,44369.365574999996,44369,1478.9666666666667,1.6301465013093548,1,1,3,2,2,2,b'NB_15_frameB.png',1480.6089990013093,44418.26997003928,44418,1480.6
79,1480.617918,44418.53754,44418,1480.6,1481.1344635,44434.033905000004,44434,1481.1333333333334,1482.6683209999999,44480.049629999994,44480,1482.6666666666667,0.9497235595918028,2,0,6,1,2,2,b'SB_1_frameA_foil.png',1483.6180445595917,44508.54133678775,44508,1483.6
80,1483.625886,44508.77658,44508,1483.6,1484.22576925,44526.7730775,44526,1484.2,1485.7602319999999,44572.806959999994,44572,1485.7333333333333,4.850158708853996,1,1,3,2,2,2,b'NB_23_frameB.png',1490.6103907088539,44718.311721265614,44718,1490.6
81,1490.620183,44718.60549,44718,1490.6,1491.153412,44734.60236,44734,1491.1333333333334,1492.6882322499998,44780.6469675,44780,1492.6666666666667,1.9775258445733925,2,1,2,2,2,3,b'SB_2_frameB.png',1494.6657580945732,44839.9727428372,44839,1494.6333333333334
82,1494.6786642499999,44840.359927499994,44840,1494.6666666666667,1495.178553,44855.356589999996,44855,1495.1666666666667,1496.71243225,44901.3729675,44901,1496.7,1.3212012357835192,2,1,2,2,2,3,b'SB_1_frameA.png',1498.0336334857834,44941.009004573505,44941,1498.0333333333333
83,1498.0421755,44941.265265,44941,1498.0333333333333,1498.5920684999999,44957.762055,44957,1498.5666666666666,1500.12679925,45003.8039775,45003,1500.1,0.0,1,0,1,0,1,0,b'NB_24_frameB_foil.png',1500.12679925,45003.8039775,45003,1500.1
84,1499.30821225,44979.2463675,44979,1499.3,1499.80809175,44994.242752499995,44994,1499.8,1501.3428777499998,45040.28633249999,45040,1501.3333333333333,3.406196901734802,2,0,6,1,2,2,b'SB_5_frameB_foil.png',1504.7490746517346,45142.47223955204,45142,1504.7333333333333
85,1504.76966875,45143.0900625,45143,1504.7666666666667,1505.25291,45157.5873,45157,1505.2333333333333,1506.78748625,45203.6245875,45203,1506.7666666666667,0.13566072241519578,1,0,6,1,2,2,b'NB_6_frameB_foil.png',1506.9231469724152,45207.69440917246,45207,1506.9
86,1506.9416362499999,45208.24908749999,45208,1506.9333333333334,1507.45820675,45223.7462025,45223,1507.4333333333334,1508.9929077499999,45269.7872325,45269,1508.9666666666667,-1.1295005289866822,2,1,3,2,2,2,b'SB_7_frameB.png',1507.8634072210132,45235.9022166304,45235,1507.8333333333333
87,1507.86733225,45236.0199675,45236,1507.8666666666666,1508.4338902499999,45253.0167075,45253,1508.4333333333334,1509.968103,45299.04309,45299,1509.9666666666667,-0.43810417300846893,2,0,6,1,2,2,b'SB_7_frameA_foil.png',1509.5299988269915,45285.899964809745,45285,1509.5
88,1509.5443695,45286.331085,45286,1509.5333333333333,1510.0942579999999,45302.82773999999,45302,1510.0666666666666,1511.62923275,45348.8769825,45348,1511.6,0.5792879426444415,2,0,6,1,2,2,b'SB_4_frameA_foil.png',1512.2085206926445,45366.25562077933,45366,1512.2
89,1512.22232375,45366.6697125,45366,1512.2,1512.7555515,45382.666545,45382,1512.7333333333333,1514.2903167499999,45428.709502499994,45428,1514.2666666666667,0.7276490780932363,3,0,6,1,2,2,b'HB_6_frameB_foil.png',1515.017965828093,45450.53897484279,45450,1515.0
90,1515.037124,45451.11372,45451,1515.0333333333333,1515.5536825,45466.610474999994,45466,1515.5333333333333,1517.0874737499998,45512.6242125,45512,1517.0666666666666,0.8914306033839239,2,0,6,1,2,2,b'SB_6_frameA_foil.png',1517.9789043533838,45539.36713060152,45539,1517.9666666666667
91,1517.985041,45539.55123,45539,1517.9666666666667,1518.451609,45553.54827,45553,1518.4333333333334,1519.9854612499998,45599.5638375,45599,1519.9666666666667,0.0,1,0,1,0,1,0,b'NB_23_frameA_foil.png',1519.9854612499998,45599.5638375,45599,1519.9666666666667
92,1520.56620725,45616.9862175,45616,1520.5333333333333,1521.0994067499998,45632.982202499996,45632,1521.0666666666666,1522.6339355,45679.018065,45679,1522.6333333333334,0.7980397213541437,2,1,6,1,1,2,b'SB_9_frameB.png',1523.4319752213542,45702.95925664062,45702,1523.4
93,1523.44034775,45703.2104325,45703,1523.4333333333334,1524.00689575,45720.2068725,45720,1524.0,1525.54190325,45766.2570975,45766,1525.5333333333333,0.0,1,0,1,0,1,0,b'NB_30_frameB_foil.png',1525.54190325,45766.2570975,45766,1525.5333333333333
94,1527.72835775,45831.8507325,45831,1527.7,1528.261593,45847.84779,45847,1528.2333333333333,1529.79671125,45893.9013375,45893,1529.7666666666667,0.2667862919915933,2,1,6,1,1,2,b'SB_5_frameA.png',1530.0634975419916,45901.90492625975,45901,1530.0333333333333
95,1530.0700235,45902.100705,45902,1530.0666666666666,1530.63657675,45919.0973025,45919,1530.6333333333334,1532.1712945,45965.138835,45965,1532.1666666666667,-1.467022276672651,3,1,2,2,2,3,b'HB_3_frameB.png',1530.7042722233273,45921.12816669982,45921,1530.7
96,1530.70998575,45921.2995725,45921,1530.7,1531.2098932499998,45936.29679749999,45936,1531.2,1532.74446375,45982.3339125,45982,1532.7333333333333,-0.8212803487840574,3,1,2,2,2,3,b'HB_3_frameA.png',1531.923183401216,45957.69550203648,45957,1531.9
97,1531.935794,45958.07382,45958,1531.9333333333334,1532.45235325,45973.5705975,45973,1532.4333333333334,1533.9873229999998,46019.61968999999,46019,1533.9666666666667,2.041823519510217,1,0,7,1,2,3,b'NB_17_frameA_foil.png',1536.02914651951,46080.8743955853,46080,1536.0
98,1536.03951225,46081.185367499995,46081,1536.0333333333333,1536.57274575,46097.1823725,46097,1536.5666666666666,1538.10716,46143.2148,46143,1538.1,1.7366210119362222,3,1,3,2,2,2,b'HB_6_frameB.png',1539.8437810119362,46195.31343035809,46195,1539.8333333333333
99,1539.85160875,46195.5482625,46195,1539.8333333333333,1540.3181805,46209.545415,46209,1540.3,1541.852031,46255.56093,46255,1541.8333333333333,-1.1313116074597929,3,0,6,1,2,2,b'HB_7_frameA_foil.png',1540.72071939254,46221.621581776206,46221,1540.7
100,1540.74039675,46222.2119025,46222,1540.7333333333333,1541.2902824999999,46238.708475,46238,1541.2666666666667,1542.8241732499998,46284.725197499996,46284,1542.8,3.1888552681630244,1,0,6,1,2,2,b'NB_26_frameB_foil.png',1546.0130285181629,46380.39085554489,46380,1546.0
101,1546.0271105,46380.813315,46380,1546.0,1546.51035275,46395.3105825,46395,1546.5,1548.0443202499998,46441.329607499996,46441,1548.0333333333333,2.4575216121884296,1,0,7,1,2,3,b'NB_14_frameB_foil.png',1550.5018418621883,46515.05525586565,46515,1550.5
102,1550.5164155,46515.492465,46515,1550.5,1551.08297625,46532.4892875,46532,1551.0666666666666,1552.61682825,46578.5048475,46578,1552.6,-1.7073644023475936,3,0,7,1,2,3,b'HB_8_frameA_foil.png',1550.9094638476524,46527.28391542957,46527,1550.9
103,1550.92847625,46527.8542875,46527,1550.9,1551.44504525,46543.3513575,46543,1551.4333333333334,1552.9796952499998,46589.390857499995,46589,1552.9666666666667,4.255266934167594,3,1,2,2,2,3,b'HB_7_frameA.png',1557.2349621841674,46717.04886552502,46717,1557.2333333333333
104,1557.25020875,46717.5062625,46717,1557.2333333333333,1557.7334345,46732.003035,46732,1557.7333333333333,1559.26828375,46778.0485125,46778,1559.2666666666667,3.504348963193479,3,1,3,2,2,2,b'HB_1_frameA.png',1562.7726327131934,46883.1789813958,46883,1562.7666666666667
105,1562.7909224999999,46883.727674999995,46883,1562.7666666666667,1563.32413475,46899.7240425,46899,1563.3,1564.857749,46945.73247,46945,1564.8333333333333,-0.3588885585486423,2,0,2,2,1,3,b'SB_2_frameA_foil.png',1564.4988604414514,46934.96581324354,46934,1564.4666666666667
106,1564.51409,46935.422699999996,46935,1564.5,1565.06397875,46951.9193625,46951,1565.0333333333333,1566.5978579999999,46997.93573999999,46997,1566.5666666666666,3.692792990579619,3,0,7,1,2,3,b'HB_2_frameB_foil.png',1570.2906509905795,47108.71952971738,47108,1570.2666666666667
107,1570.2998492499999,47108.99547749999,47108,1570.2666666666667,1570.7664169999998,47122.99251,47122,1570.7333333333333,1572.3008109999998,47169.02432999999,47169,1572.3,2.489344309477019,3,0,2,2,1,3,b'HB_2_frameB_foil.png',1574.7901553094769,47243.7046592843,47243,1574.7666666666667
108,1574.7963785,47243.891355,47243,1574.7666666666667,1575.3296005,47259.888015,47259,1575.3,1576.863533,47305.90599,47305,1576.8333333333333,-1.5269653582654428,2,0,2,2,1,3,b'SB_8_frameA_foil.png',1575.3365676417345,47260.097029252036,47260,1575.3333333333333
109,1575.34933775,47260.4801325,47260,1575.3333333333333,1575.93256925,47277.9770775,47277,1575.9,1577.46648525,47323.9945575,47323,1577.4333333333334,-1.6912388281780295,2,0,6,1,2,2,b'SB_1_frameA_foil.png',1575.775246421822,47273.25739265466,47273,1575.7666666666667
110,1575.7842564999999,47273.527695,47273,1575.7666666666667,1576.3008105,47289.024314999995,47289,1576.3,1577.8346305,47335.038915,47335,1577.8333333333333,1.3016160444676643,3,1,7,1,1,3,b'HB_6_frameA.png',1579.1362465444677,47374.08739633403,47374,1579.1333333333334
111,1579.142359,47374.270769999996,47374,1579.1333333333334,1579.6422595,47389.267785,47389,1579.6333333333334,1581.17690225,47435.3070675,47435,1581.1666666666667,2.473626302962657,2,0,7,1,2,3,b'SB_9_frameB_foil.png',1583.6505285529627,47509.51585658888,47509,1583.6333333333334
112,1583.66340825,47509.9022475,47509,1583.6333333333334,1584.179969,47525.39907,47525,1584.1666666666667,1585.7136785,47571.410355,47571,1585.7,4.062460702334647,3,1,7,1,1,3,b'HB_2_frameA.png',1589.7761392023347,47693.28417607004,47693,1589.7666666666667
113,1589.7886087499999,47693.658262499994,47693,1589.7666666666667,1590.32182075,47709.6546225,47709,1590.3,1591.85666125,47755.6998375,47755,1591.8333333333333,1.8461588991049211,1,1,2,2,2,3,b'NB_29_frameB.png',1593.7028201491048,47811.084604473144,47811,1593.7
114,1593.71332825,47811.3998475,47811,1593.7,1594.196659,47825.899769999996,47825,1594.1666666666667,1595.7305797499998,47871.91739249999,47871,1595.7,-2.5075311101973057,2,0,7,1,2,3,b'SB_4_frameB_foil.png',1593.2230486398025,47796.69145919407,47796,1593.2
115,1593.232515,47796.97545,47796,1593.2,1593.7490814999999,47812.472445,47812,1593.7333333333333,1595.2830715,47858.492145,47858,1595.2666666666667,1.6532221193047008,2,1,2,2,2,3,b'SB_8_frameA.png',1596.9362936193047,47908.08880857914,47908,1596.9333333333334
116,1596.95131425,47908.5394275,47908,1596.9333333333334,1597.5511884999999,47926.53565499999,47926,1597.5333333333333,1599.08585325,47972.5755975,47972,1599.0666666666666,2.66767578299914,1,1,6,1,1,2,b'NB_28_frameA.png',1601.753529032999,48052.60587098997,48052,1601.7333333333333
117,1601.7569305,48052.707915,48052,1601.7333333333333,1602.29019075,48068.7057225,48068,1602.2666666666667,1603.824292,48114.72876,48114,1603.8,4.065397330312408,1,1,6,1,1,2,b'NB_22_frameA.png',1607.8896893303124,48236.69067990937,48236,1607.8666666666666
118,1607.9029377499999,48237.088132499994,48237,1607.9,1608.48614,48254.5842,48254,1608.4666666666667,1610.0197234999998,48300.59170499999,48300,1610.0,2.9137876635359135,1,0,7,1,2,3,b'NB_1_frameA_foil.png',1612.9335111635357,48388.00533490607,48388,1612.9333333333334
119,1612.9541387499999,48388.6241625,48388,1612.9333333333334,1613.47069975,48404.1209925,48404,1613.4666666666667,1615.00556375,48450.1669125,48450,1615.0,4.7564377209491795,3,0,7,1,2,3,b'HB_2_frameB_foil.png',1619.7620014709491,48592.86004412847,48592,1619.7333333333333
120,1619.76744025,48593.023207499995,48593,1619.7666666666667,1620.267331,48608.01993,48608,1620.2666666666667,1621.8012099999999,48654.03629999999,48654,1621.8,0.4158056544692954,3,0,7,1,2,3,b'HB_1_frameA_foil.png',1622.2170156544692,48666.51046963407,48666,1622.2
121,1622.22537825,48666.761347499996,48666,1622.2,1622.69196075,48680.7588225,48680,1622.6666666666667,1624.2256782499999,48726.770347499994,48726,1624.2,5.471343732133391,3,0,6,1,2,2,b'HB_1_frameB_foil.png',1629.6970219821333,48890.910659463996,48890,1629.6666666666667
122,1629.7078365,48891.235095,48891,1629.7,1630.2410619999998,48907.23185999999,48907,1630.2333333333333,1631.77582425,48953.2747275,48953,1631.7666666666667,1.2390092849964276,2,1,7,1,1,3,b'SB_5_frameA.png',1633.0148335349963,48990.44500604989,48990,1633.0
123,1633.029186,48990.87558,48990,1633.0,1633.5957437499999,49007.872312499996,49007,1633.5666666666666,1635.129342,49053.88026,49053,1635.1,1.9225954479625216,2,0,6,1,2,2,b'SB_2_frameB_foil.png',1637.0519374479625,49111.558123438874,49111,1637.0333333333333
124,1637.0640005,49111.920015,49111,1637.0333333333333,1637.6472245,49129.416735,49129,1637.6333333333334,1639.1817677499998,49175.453032499994,49175,1639.1666666666667,0.0,2,1,1,0,1,0,b'SB_6_frameB.png',1639.1817677499998,49175.453032499994,49175,1639.1666666666667
125,1638.4570884999998,49153.712654999996,49153,1638.4333333333334,1639.0069872499998,49170.2096175,49170,1639.0,1640.54156375,49216.2469125,49216,1640.5333333333333,-1.8637380226427922,3,0,6,1,2,2,b'HB_4_frameA_foil.png',1638.6778257273572,49160.334771820715,49160,1638.6666666666667
126,1638.68909725,49160.6729175,49160,1638.6666666666667,1639.2223215,49176.669644999994,49176,1639.2,1640.7564849999999,49222.69455,49222,1640.7333333333333,-1.7227162952185608,3,1,6,1,1,2,b'HB_5_frameB.png',1639.0337687047813,49171.01306114344,49171,1639.0333333333333
127,1639.0647562499998,49171.94268749999,49171,1639.0333333333333,1639.5813054999999,49187.439164999996,49187,1639.5666666666666,1641.11482575,49233.4447725,49233,1641.1,0.0,2,0,1,0,1,0,b'SB_1_frameA_foil.png',1641.11482575,49233.4447725,49233,1641.1
128,1642.6671617499999,49280.0148525,49280,1642.6666666666667,1643.1670675,49295.012025,49295,1643.1666666666667,1644.7180449999998,49341.54134999999,49341,1644.7,0.0,1,1,1,0,1,0,b'NB_16_frameA.png',1644.7180449999998,49341.54134999999,49341,1644.7
129,1642.3122225,49269.366675,49269,1642.3,1642.7954499999998,49283.86349999999,49283,1642.7666666666667,1644.32925725,49329.8777175,49329,1644.3,0.0,1,1,1,0,1,0,b'NB_4_frameA.png',1644.32925725,49329.8777175,49329,1644.3
130,1643.6231819999998,49308.695459999995,49308,1643.6,1644.1730675,49325.192025,49325,1644.1666666666667,1645.70763425,49371.2290275,49371,1645.7,0.0,1,1,1,0,1,0,b'NB_1_frameB.png',1645.70763425,49371.2290275,49371,1645.7
131,1642.6575344999999,49279.726035,49279,1642.6333333333334,1643.24075425,49297.2226275,49297,1643.2333333333333,1644.77467275,49343.2401825,49343,1644.7666666666667,0.0,3,1,1,0,1,0,b'HB_2_frameA.png',1644.77467275,49343.2401825,49343,1644.7666666666667
132,1645.0710212499998,49352.1306375,49352,1645.0666666666666,1645.57091425,49367.1274275,49367,1645.5666666666666,1647.10556625,49413.1669875,49413,1647.1,0.0,2,0,1,0,1,0,b'SB_3_frameB_foil.png',1647.10556625,49413.1669875,49413,1647.1
133,1648.2538439999998,49447.61532,49447,1648.2333333333333,1648.8037347499999,49464.1120425,49464,1648.8,1650.33815425,49510.1446275,49510,1650.3333333333333,0.0,2,1,1,0,1,0,b'SB_6_frameB.png',1650.33815425,49510.1446275,49510,1650.3333333333333
134,1652.90096625,49587.0289875,49587,1652.9,1653.4341915,49603.025745,49603,1653.4333333333334,1654.9685425,49649.056275,49649,1654.9666666666667,0.07226256557623856,2,0,6,1,2,2,b'SB_3_frameB_foil.png',1655.0408050655763,49651.22415196729,49651,1655.0333333333333
135,1655.0573485,49651.720455,49651,1655.0333333333333,1655.5905754999999,49667.717265,49667,1655.5666666666666,1657.12565475,49713.769642499996,49713,1657.1,5.254428063635714,1,1,6,1,1,2,b'NB_7_frameB.png',1662.3800828136357,49871.40248440907,49871,1662.3666666666666
136,1662.3925427499998,49871.776282499995,49871,1662.3666666666666,1662.89243975,49886.7731925,49886,1662.8666666666666,1664.42630775,49932.7892325,49932,1664.4,0.4066678138333373,1,1,6,1,1,2,b'NB_26_frameA.png',1664.8329755638333,49944.989266915,49944,1664.8
137,1664.84227825,49945.2683475,49945,1664.8333333333333,1665.358841,49960.76523,49960,1665.3333333333333,1666.89300975,50006.790292499994,50006,1666.8666666666666,0.9585399559582584,1,1,3,2,2,2,b'NB_27_frameB.png',1667.8515497059582,50035.54649117874,50035,1667.8333333333333
138,1667.86573325,50035.9719975,50035,1667.8333333333333,1668.3823035,50051.469105000004,50051,1668.3666666666666,1669.9170904999999,50097.512715,50097,1669.9,-2.732500993006397,1,0,3,2,1,2,b'NB_16_frameB_foil.png',1667.1845895069935,50015.537685209805,50015,1667.1666666666667
139,1667.19243025,50015.772907499995,50015,1667.1666666666667,1667.742307,50032.26921,50032,1667.7333333333333,1669.2762257499999,50078.286772499996,50078,1669.2666666666667,-0.5460870032547973,1,0,6,1,2,2,b'NB_5_frameA_foil.png',1668.730138746745,50061.90416240235,50061,1668.7
140,1668.7483332499999,50062.44999749999,50062,1668.7333333333333,1669.281562,50078.44686,50078,1669.2666666666667,1670.81620525,50124.486157499996,50124,1670.8,0.0,3,1,1,0,1,0,b'HB_4_frameB.png',1670.81620525,50124.486157499996,50124,1670.8
141,1671.23689225,50137.1067675,50137,1671.2333333333333,1671.703466,50151.10398,50151,1671.7,1673.237688,50197.130639999996,50197,1673.2333333333333,3.207630943041295,1,0,6,1,2,2,b'NB_2_frameB_foil.png',1676.4453189430412,50293.359568291235,50293,1676.4333333333334
142,1676.4636297499999,50293.908892499996,50293,1676.4333333333334,1676.99681425,50309.9044275,50309,1676.9666666666667,1678.53130225,50355.939067499996,50355,1678.5,4.3467235979187535,2,0,6,1,2,2,b'SB_6_frameA_foil.png',1682.8780258479187,50486.34077543756,50486,1682.8666666666666
143,1682.89389575,50486.8168725,50486,1682.8666666666666,1683.3604205,50500.812614999995,50500,1683.3333333333333,1684.89525525,50546.8576575,50546,1684.8666666666666,2.454783602428506,3,0,6,1,2,2,b'HB_6_frameA_foil.png',1687.3500388524285,50620.50116557285,50620,1687.3333333333333
144,1687.365627,50620.96881,50620,1687.3333333333333,1687.8988405,50636.965215000004,50636,1687.8666666666666,1689.4333665,50683.000994999995,50683,1689.4333333333334,-1.2083814712095773,1,0,3,2,1,2,b'NB_12_frameB_foil.png',1688.2249850287903,50646.74955086371,50646,1688.2
145,1688.2431957499998,50647.29587249999,50647,1688.2333333333333,1688.7764002499998,50663.29200749999,50663,1688.7666666666667,1690.3100175,50709.300525,50709,1690.3,0.0,1,0,1,0,1,0,b'NB_22_frameB_foil.png',1690.3100175,50709.300525,50709,1690.3
146,1695.281914,50858.45742,50858,1695.2666666666667,1695.7984844999999,50873.954535,50873,1695.7666666666667,1697.3494385,50920.483154999994,50920,1697.3333333333333,0.0,3,0,1,0,1,0,b'HB_3_frameB_foil.png',1697.3494385,50920.483154999994,50920,1697.3333333333333
147,1700.2269502499998,51006.8085075,51006,1700.2,1700.7268525,51021.805575,51021,1700.7,1702.2609842499999,51067.8295275,51067,1702.2333333333333,-2.1012181028345367,1,1,6,1,1,2,b'NB_5_frameB.png',1700.1597661471653,51004.79298441496,51004,1700.1333333333334
148,1700.16429325,51004.9287975,51004,1700.1333333333334,1700.7475064999999,51022.425194999996,51022,1700.7333333333333,1702.2813095,51068.439285,51068,1702.2666666666667,2.9763822712557158,2,0,7,1,2,3,b'SB_5_frameA_foil.png',1705.2576917712556,51157.73075313767,51157,1705.2333333333333
149,1705.2626134999998,51157.878404999996,51157,1705.2333333333333,1705.7791762499999,51173.3752875,51173,1705.7666666666667,1707.3138327499998,51219.4149825,51219,1707.3,1.445012202282669,2,0,3,2,1,2,b'SB_1_frameB_foil.png',1708.7588449522825,51262.76534856848,51262,1708.7333333333333
150,1708.768689,51263.06067,51263,1708.7666666666667,1709.33524775,51280.0574325,51280,1709.3333333333333,1710.86968125,51326.0904375,51326,1710.8666666666666,-1.5652138851874042,1,0,3,2,1,2,b'NB_9_frameA_foil.png',1709.3044673648126,51279.13402094438,51279,1709.3
151,1709.31766225,51279.5298675,51279,1709.3,1709.86755275,51296.026582499995,51296,1709.8666666666666,1711.4021867499998,51342.06560249999,51342,1711.4,0.03266412069206126,3,1,6,1,1,2,b'HB_1_frameA.png',1711.434850870692,51343.04552612075,51343,1711.4333333333334
152,1711.44935175,51343.4805525,51343,1711.4333333333334,1711.9659152499999,51358.9774575,51358,1711.9333333333334,1713.49974125,51404.992237499995,51404,1713.4666666666667,3.3294676911027636,3,1,7,1,1,3,b'HB_8_frameB.png',1716.8292089411027,51504.87626823308,51504,1716.8
153,1716.8446609999999,51505.33983,51505,1716.8333333333333,1717.3612315,51520.836945,51520,1717.3333333333333,1718.8953804999999,51566.861415,51566,1718.8666666666666,2.827111667371355,3,1,7,1,1,3,b'HB_5_frameA.png',1721.7224921673712,51651.67476502114,51651,1721.7
154,1721.7351325,51652.053975,51652,1721.7333333333333,1722.201707,51666.05121,51666,1722.2,1723.736342,51712.09026,51712,1723.7333333333333,-1.4430385204032063,3,0,7,1,2,3,b'HB_9_frameB_foil.png',1722.2933034795967,51668.7991043879,51668,1722.2666666666667
155,1722.297554,51668.92662,51668,1722.2666666666667,1722.8474345,51685.423035,51685,1722.8333333333333,1724.38200525,51731.4601575,51731,1724.3666666666666,2.603897506982321,3,0,7,1,2,3,b'HB_3_frameA_foil.png',1726.9859027569823,51809.57708270947,51809,1726.9666666666667
156,1726.9944027499998,51809.8320825,51809,1726.9666666666667,1727.5109612499998,51825.3288375,51825,1727.5,1729.045633,51871.368989999995,51871,1729.0333333333333,3.5797434424166568,3,1,7,1,1,3,b'HB_1_frameB.png',1732.6253764424166,51978.761293272495,51978,1732.6
157,1732.6439429999998,51979.318289999996,51979,1732.6333333333334,1733.19383425,51995.8150275,51995,1733.1666666666667,1734.7279952499998,52041.839857499996,52041,1734.7,2.0789497219375335,1,1,7,1,1,3,b'NB_18_frameA.png',1736.8069449719374,52104.20834915812,52104,1736.8
158,1736.8226049999998,52104.67814999999,52104,1736.8,1737.3724937499999,52121.174812499994,52121,1737.3666666666666,1738.90706675,52167.212002500004,52167,1738.9,-0.5787067337951157,3,1,3,2,2,2,b'HB_5_frameA.png',1738.328360016205,52149.85080048615,52149,1738.3
159,1738.34400375,52150.3201125,52150,1738.3333333333333,1738.9272267499998,52167.8168025,52167,1738.9,1740.4609624999998,52213.82887499999,52213,1740.4333333333334,-2.1785404295224,1,0,3,2,1,2,b'NB_25_frameA_foil.png',1738.2824220704774,52148.47266211432,52148,1738.2666666666667
160,1738.285336,52148.560079999996,52148,1738.2666666666667,1738.8018925,52164.056775,52164,1738.8,1740.33595675,52210.078702499995,52210,1740.3333333333333,1.1701714095106581,2,1,7,1,1,3,b'SB_8_frameB.png',1741.5061281595106,52245.183844785315,52245,1741.5
161,1741.512321,52245.36963,52245,1741.5,1742.0122179999998,52260.366539999995,52260,1742.0,1743.54659425,52306.3978275,52306,1743.5333333333333,0.3439400524366647,3,0,7,1,2,3,b'HB_7_frameB_foil.png',1743.8905343024367,52316.7160290731,52316,1743.8666666666666
162,1743.9039544999998,52317.11863499999,52317,1743.9,1744.35386475,52330.6159425,52330,1744.3333333333333,1745.887873,52376.63619,52376,1745.8666666666666,-0.5202108235971536,2,1,7,1,1,3,b'SB_9_frameA.png',1745.3676621764027,52361.02986529208,52361,1745.3666666666666
163,1745.3831357499998,52361.4940725,52361,1745.3666666666666,1745.86636475,52375.9909425,52375,1745.8333333333333,1747.401509,52422.04527,52422,1747.4,2.1750518777989782,2,1,7,1,1,3,b'SB_2_frameB.png',1749.576560877799,52487.29682633397,52487,1749.5666666666666
164,1749.5888615,52487.665844999996,52487,1749.5666666666666,1750.1387585,52504.162755,52504,1750.1333333333334,1751.6728675,52550.186024999995,52550,1751.6666666666667,-4.251704975293251,1,1,3,2,2,2,b'NB_21_frameB.png',1747.4211625247067,52422.6348757412,52422,1747.4
165,1747.4404849999999,52423.21455,52423,1747.4333333333334,1748.007048,52440.21144,52440,1748.0,1749.5417635,52486.252904999994,52486,1749.5333333333333,2.067246231759782,2,0,7,1,2,3,b'SB_6_frameB_foil.png',1751.6090097317597,52548.27029195279,52548,1751.6
166,1751.6299677499999,52548.8990325,52548,1751.6,1752.0965454999998,52562.89636499999,52562,1752.0666666666666,1753.6299044999998,52608.89713499999,52608,1753.6,2.231000730636879,1,0,7,1,2,3,b'NB_8_frameB_foil.png',1755.8609052306367,52675.8271569191,52675,1755.8333333333333
167,1755.87265125,52676.1795375,52676,1755.8666666666666,1756.3892127499998,52691.676382499994,52691,1756.3666666666666,1757.92392725,52737.7178175,52737,1757.9,-1.475202322777477,1,0,3,2,1,2,b'NB_15_frameA_foil.png',1756.4487249272224,52693.46174781668,52693,1756.4333333333334
168,1756.4547049999999,52693.641149999996,52693,1756.4333333333334,1756.9879032499998,52709.637097499995,52709,1756.9666666666667,1758.522467,52755.67401,52755,1758.5,3.423907388947555,3,0,2,2,1,3,b'HB_8_frameA_foil.png',1761.9463743889476,52858.39123166843,52858,1761.9333333333334
169,1761.951394,52858.54182,52858,1761.9333333333334,1762.4179319999998,52872.537959999994,52872,1762.4,1763.95195,52918.5585,52918,1763.9333333333334,0.0,3,1,1,0,1,0,b'HB_4_frameA.png',1763.95195,52918.5585,52918,1763.9333333333334
170,1769.766306,53092.98918,53092,1769.7333333333333,1770.3328665,53109.985994999995,53109,1770.3,1771.8665469999999,53155.99640999999,53155,1771.8333333333333,0.7534562457440188,3,1,7,1,1,3,b'HB_9_frameA.png',1772.6200032457439,53178.60009737231,53178,1772.6
171,1772.6374575,53179.123725,53179,1772.6333333333334,1773.2039937499999,53196.119812499994,53196,1773.2,1774.73846325,53242.1538975,53242,1774.7333333333333,0.7986287816020194,3,0,7,1,2,3,b'HB_6_frameB_foil.png',1775.537092031602,53266.11276094806,53266,1775.5333333333333
172,1775.5496914999999,53266.490744999996,53266,1775.5333333333333,1776.049597,53281.487909999996,53281,1776.0333333333333,1777.5832302499998,53327.4969075,53327,1777.5666666666666,2.5977575982396957,2,1,2,2,2,3,b'SB_1_frameA.png',1780.1809878482395,53405.42963544719,53405,1780.1666666666667
173,1780.1920719999998,53405.76216,53405,1780.1666666666667,1780.7752894999999,53423.25868499999,53423,1780.7666666666667,1782.309082,53469.27246,53469,1782.3,0.0,1,1,1,0,1,0,b'NB_17_frameB.png',1782.309082,53469.27246,53469,1782.3
174,1782.3651997499999,53470.9559925,53470,1782.3333333333333,1782.96507475,53488.9522425,53488,1782.9333333333334,1784.49874275,53534.9622825,53534,1784.4666666666667,2.4925297872250667,3,0,7,1,2,3,b'HB_1_frameA_foil.png',1786.991272537225,53609.73817611675,53609,1786.9666666666667
175,1787.0107449999998,53610.322349999995,53610,1787.0,1787.5606377499998,53626.81913249999,53626,1787.5333333333333,1789.0944525,53672.833575,53672,1789.0666666666666,0.0,3,1,1,0,1,0,b'HB_3_frameA.png',1789.0944525,53672.833575,53672,1789.0666666666666
176,1790.0402935,53701.208805,53701,1790.0333333333333,1790.5901775,53717.705325,53717,1790.5666666666666,1792.1247362499998,53763.742087499995,53763,1792.1,1.0899436861654976,2,1,2,2,2,3,b'SB_4_frameB.png',1793.2146799361653,53796.44039808496,53796,1793.2
177,1793.2455145,53797.365435,53797,1793.2333333333333,1793.80901325,53814.2703975,53814,1793.8,1795.3573407499998,53860.72022249999,53860,1795.3333333333333,2.694487171684159,2,1,6,1,1,2,b'SB_30_frameA.png',1798.051827921684,53941.55483765052,53941,1798.0333333333333
178,1798.0897615,53942.692845,53942,1798.0666666666666,1798.5792485,53957.377455,53957,1798.5666666666666,1800.1310542499998,54003.931627499995,54003,1800.1,0.0664041242125677,2,0,7,1,2,3,b'SB_30_frameB_foil.png',1800.1974583742124,54005.92375122637,54005,1800.1666666666667
179,1800.2256874999998,54006.770625,54006,1800.2,1800.7474985,54022.424954999995,54022,1800.7333333333333,1802.28981175,54068.694352499995,54068,1802.2666666666667,-0.26532913878327236,3,1,7,1,1,3,b'HB_30_frameB.png',1802.0244826112166,54060.7344783365,54060,1802.0
180,1802.0473865,54061.421595,54061,1802.0333333333333,1802.5471045,54076.413134999995,54076,1802.5333333333333,1804.052743,54121.58229,54121,1804.0333333333333,-1.0365477407030994,3,0,2,2,1,3,b'HB_30_frameA_foil.png',1803.0161952592969,54090.485857778905,54090,1803.0
