trial_num,fixcross_time,fixation_HZ,fixation_bin,fixation_regarded,start_time,Fstart_HZ,Fstart_bin,Fstart_regarded,stop_time,Fstop_HZ,Fstop_bin,Fstop_regarded,RT,boundary_type,stimuli_type,resp_value,old_new,accuracy,confidence,frameName,response_time,response_HZ,response_bin,response_regarded
1,1237.06281575,37111.8844725,37111,1237.0333333333333,1237.5847465,37127.542395,37127,1237.5666666666666,1239.1404532499998,37174.2135975,37174,1239.1333333333334,1.367522286322128,3,0,7,1,2,3,b'HB_9_frameB_foil.png',1240.507975536322,37215.23926608966,37215,1240.5
2,1240.52544675,37215.7634025,37215,1240.5,1241.0675529999999,37232.026589999994,37232,1241.0666666666666,1242.5949685,37277.849055,37277,1242.5666666666666,2.017555992371854,1,1,2,2,2,3,b'NB_25_frameB.png',1244.612524492372,37338.37573477116,37338,1244.6
3,1244.6273155,37338.81946499999,37338,1244.6,1245.1694065,37355.082194999995,37355,1245.1666666666667,1246.6971879999999,37400.91564,37400,1246.6666666666667,0.11053251457997249,2,1,2,2,2,3,b'SB_5_frameA.png',1246.8077205145798,37404.2316154374,37404,1246.8
4,1246.8202684999999,37404.608055,37404,1246.8,1247.3421154999999,37420.263464999996,37420,1247.3333333333333,1248.8727815,37466.183445,37466,1248.8666666666666,1.7917670984570577,1,0,7,1,2,3,b'NB_14_frameB_foil.png',1250.664548598457,37519.936457953714,37519,1250.6333333333334
5,1250.678527,37520.35581,37520,1250.6666666666667,1251.2404695,37537.214085,37537,1251.2333333333333,1252.7909352499998,37583.7280575,37583,1252.7666666666667,0.17902090544157545,1,0,7,1,2,3,b'NB_19_frameA_foil.png',1252.9699561554414,37589.098684663244,37589,1252.9666666666667
6,1252.99187525,37589.7562575,37589,1252.9666666666667,1253.553749,37606.61247,37606,1253.5333333333333,1255.0810165,37652.430495,37652,1255.0666666666666,0.322328093689066,3,0,7,1,2,3,b'HB_2_frameB_foil.png',1255.403344593689,37662.100337810676,37662,1255.4
7,1255.42706,37662.811799999996,37662,1255.4,1256.0089885,37680.269655,37680,1256.0,1257.5561539999999,37726.68462,37726,1257.5333333333333,2.19266231344227,1,1,2,2,2,3,b'NB_8_frameA.png',1259.7488163134421,37792.46448940327,37792,1259.7333333333333
8,1259.761033,37792.83099,37792,1259.7333333333333,1260.30285975,37809.085792499995,37809,1260.3,1261.85080475,37855.5241425,37855,1261.8333333333333,-1.4264017891800904,2,0,7,1,2,3,b'SB_1_frameA_foil.png',1260.4244029608199,37812.732088824596,37812,1260.4
9,1260.446039,37813.38117,37813,1260.4333333333334,1261.027992,37830.83976,37830,1261.0,1262.57521,37877.2563,37877,1262.5666666666666,1.1803501905233134,2,0,7,1,2,3,b'SB_2_frameB_foil.png',1263.7555601905233,37912.6668057157,37912,1263.7333333333333
10,1263.76241925,37912.8725775,37912,1263.7333333333333,1264.3244399999999,37929.733199999995,37929,1264.3,1265.8716325,37976.148975000004,37976,1265.8666666666666,3.145474921226196,1,1,2,2,2,3,b'NB_11_frameB.png',1269.0171074212262,38070.513222636786,38070,1269.0
11,1269.0252835,38070.758505,38070,1269.0,1269.52697175,38085.8091525,38085,1269.5,1271.0541355,38131.624065,38131,1271.0333333333333,1.576724113076125,2,0,7,1,2,3,b'SB_6_frameA_foil.png',1272.6308596130762,38178.925788392284,38178,1272.6
12,1272.6394552499999,38179.1836575,38179,1272.6333333333334,1273.201349,38196.04047,38196,1273.2,1274.72847475,38241.8542425,38241,1274.7,1.8952616122096515,2,0,7,1,2,3,b'SB_3_frameB_foil.png',1276.6237363622097,38298.71209086629,38298,1276.6
13,1276.64501075,38299.3503225,38299,1276.6333333333334,1277.22694325,38316.8082975,38316,1277.2,1278.77414375,38363.224312499995,38363,1278.7666666666667,4.156512222856691,1,1,2,2,2,3,b'NB_23_frameB.png',1282.9306559728566,38487.919679185696,38487,1282.9
14,1282.9528974999998,38488.586924999996,38488,1282.9333333333334,1283.514788,38505.44364,38505,1283.5,1285.0622274999998,38551.866825,38551,1285.0333333333333,1.4153191154891829,3,0,7,1,2,3,b'HB_3_frameA_foil.png',1286.477546615489,38594.32639846467,38594,1286.4666666666667
15,1286.48465475,38594.5396425,38594,1286.4666666666667,1287.04659625,38611.3978875,38611,1287.0333333333333,1288.57374025,38657.21220749999,38657,1288.5666666666666,1.8651618887979566,2,1,2,2,2,3,b'SB_6_frameA.png',1290.4389021387979,38713.167064163936,38713,1290.4333333333334
16,1290.4607695,38713.823084999996,38713,1290.4333333333334,1291.0227539999998,38730.68261999999,38730,1291.0,1292.5499995,38776.499985,38776,1292.5333333333333,1.8454459910099104,2,1,2,2,2,3,b'SB_3_frameA.png',1294.39544549101,38831.8633647303,38831,1294.3666666666666
17,1294.406831,38832.20493,38832,1294.4,1294.92864775,38847.8594325,38847,1294.9,1296.45568975,38893.670692499996,38893,1296.4333333333334,2.4433160588523606,1,0,7,1,2,3,b'NB_21_frameA_foil.png',1298.8990058088523,38966.97017426557,38966,1298.8666666666666
18,1298.9230725,38967.692175,38967,1298.9,1299.46480225,38983.9440675,38983,1299.4333333333334,1301.0121757499999,39030.3652725,39030,1301.0,0.0,1,0,1,0,1,0,b'NB_15_frameA_foil.png',1301.0121757499999,39030.3652725,39030,1301.0
19,1298.8492509999999,38965.47753,38965,1298.8333333333333,1299.43124675,38982.9374025,38982,1299.4,1300.95857075,39028.7571225,39028,1300.9333333333334,0.0,1,1,1,0,1,0,b'NB_16_frameA.png',1300.95857075,39028.7571225,39028,1300.9333333333334
20,1306.1950625,39185.851875,39185,1306.1666666666667,1306.75693775,39202.708132499996,39202,1306.7333333333333,1308.3040999999998,39249.12299999999,39249,1308.3,-0.0034202645747427596,1,0,7,1,2,3,b'NB_20_frameB_foil.png',1308.300679735425,39249.020392062754,39249,1308.3
21,1308.32087975,39249.626392499995,39249,1308.3,1308.8627145,39265.881435,39265,1308.8333333333333,1310.40992225,39312.297667499995,39312,1310.4,1.4418570336783887,3,1,2,2,2,3,b'HB_7_frameB.png',1311.8517792836783,39355.55337851035,39355,1311.8333333333333
22,1311.870617,39356.11851,39356,1311.8666666666666,1312.43245875,39372.9737625,39372,1312.4,1313.9597055,39418.791164999995,39418,1313.9333333333334,0.0,2,1,1,0,1,0,b'SB_4_frameB.png',1313.9597055,39418.791164999995,39418,1313.9333333333334
23,1314.38040725,39431.4122175,39431,1314.3666666666666,1314.922227,39447.66681,39447,1314.9,1316.4494009999999,39493.48203,39493,1316.4333333333334,0.0,1,1,1,0,1,0,b'NB_30_frameA.png',1316.4494009999999,39493.48203,39493,1316.4333333333334
24,1319.19945575,39575.9836725,39575,1319.1666666666667,1319.741525,39592.245749999995,39592,1319.7333333333333,1321.2886105,39638.658315,39638,1321.2666666666667,0.0,1,1,1,0,1,0,b'NB_18_frameA.png',1321.2886105,39638.658315,39638,1321.2666666666667
25,1316.34385275,39490.3155825,39490,1316.3333333333333,1316.88575475,39506.572642499996,39506,1316.8666666666666,1318.412812,39552.384360000004,39552,1318.4,0.7254250744972524,3,1,2,2,2,3,b'HB_2_frameA.png',1319.1382370744973,39574.14711223492,39574,1319.1333333333334
26,1319.1544099999999,39574.6323,39574,1319.1333333333334,1319.71628225,39591.4884675,39591,1319.7,1321.2435025,39637.305075,39637,1321.2333333333333,4.206977412013657,3,0,6,1,2,2,b'HB_8_frameA_foil.png',1325.4504799120136,39763.514397360406,39763,1325.4333333333334
27,1325.4568232499998,39763.7046975,39763,1325.4333333333334,1325.95853625,39778.7560875,39778,1325.9333333333334,1327.48565925,39824.5697775,39824,1327.4666666666667,2.263664945443452,3,0,7,1,2,3,b'HB_3_frameB_foil.png',1329.7493241954435,39892.479725863304,39892,1329.7333333333333
28,1329.7599062499999,39892.79718749999,39892,1329.7333333333333,1330.321798,39909.65394,39909,1330.3,1331.8489359999999,39955.46808,39955,1331.8333333333333,2.0518431881027936,3,1,2,2,2,3,b'HB_9_frameB.png',1333.9007791881027,40017.02337564308,40017,1333.9
29,1333.9087335,40017.262005,40017,1333.9,1334.4505605,40033.516814999995,40033,1334.4333333333334,1335.99776,40079.9328,40079,1335.9666666666667,6.551083247939459,1,1,3,2,2,2,b'NB_10_frameA.png',1342.5488432479394,40276.46529743818,40276,1342.5333333333333
30,1342.55698025,40276.7094075,40276,1342.5333333333333,1343.13901775,40294.1705325,40294,1343.1333333333334,1344.6663675,40339.991024999996,40339,1344.6333333333334,-1.3290666851844435,1,1,2,2,2,3,b'NB_2_frameA.png',1343.3373008148155,40300.119024444466,40300,1343.3333333333333
31,1343.3557974999999,40300.673924999996,40300,1343.3333333333333,1343.87740975,40316.3222925,40316,1343.8666666666666,1345.42466275,40362.7398825,40362,1345.4,0.004608941320839222,2,1,2,2,2,3,b'SB_2_frameA.png',1345.4292716913208,40362.87815073962,40362,1345.4
32,1345.4439734999999,40363.31920499999,40363,1345.4333333333334,1345.965731,40378.97193,40378,1345.9333333333334,1347.4928645,40424.785935,40424,1347.4666666666667,-0.32485630775408936,1,1,3,2,2,2,b'NB_24_frameA.png',1347.168008192246,40415.04024576738,40415,1347.1666666666667
33,1347.1899549999998,40415.69864999999,40415,1347.1666666666667,1347.7315824999998,40431.94747499999,40431,1347.7,1349.2788907499998,40478.366722499995,40478,1349.2666666666667,0.46993446507985936,1,0,7,1,2,3,b'NB_29_frameA_foil.png',1349.7488252150797,40492.46475645239,40492,1349.7333333333333
34,1349.7730505,40493.191515,40493,1349.7666666666667,1350.2948474999998,40508.84542499999,40508,1350.2666666666667,1351.841999,40555.25997,40555,1351.8333333333333,1.7004048609942402,2,1,3,2,2,2,b'SB_9_frameA.png',1353.5424038609942,40606.27211582983,40606,1353.5333333333333
35,1353.55803275,40606.7409825,40606,1353.5333333333333,1354.13979125,40624.1937375,40624,1354.1333333333334,1355.68709225,40670.6127675,40670,1355.6666666666667,0.5390524267495493,2,1,2,2,2,3,b'SB_2_frameA.png',1356.2261446767495,40686.78434030249,40686,1356.2
36,1356.23578925,40687.0736775,40687,1356.2333333333333,1356.79769025,40703.930707499996,40703,1356.7666666666667,1358.3447502499998,40750.3425075,40750,1358.3333333333333,1.3122883930645912,3,0,6,1,2,2,b'HB_2_frameB_foil.png',1359.6570386430644,40789.71115929193,40789,1359.6333333333334
37,1359.6687765,40790.063295,40790,1359.6666666666667,1360.2306577499999,40806.9197325,40806,1360.2,1361.7577932499998,40852.7337975,40852,1361.7333333333333,1.4588462201718357,2,1,2,2,2,3,b'SB_8_frameA.png',1363.2166394701717,40896.49918410515,40896,1363.2
38,1363.23319475,40896.9958425,40896,1363.2,1363.79531725,40913.8595175,40913,1363.7666666666667,1365.34241475,40960.2724425,40960,1365.3333333333333,-0.21148909025760076,3,0,6,1,2,2,b'HB_1_frameB_foil.png',1365.1309256597424,40953.92776979227,40953,1365.1
39,1365.14116625,40954.2349875,40954,1365.1333333333334,1365.6829867499998,40970.4896025,40970,1365.6666666666667,1367.2101397499998,41016.30419249999,41016,1367.2,0.6042088051945029,3,1,2,2,2,3,b'HB_7_frameA.png',1367.8143485551943,41034.43045665583,41034,1367.8
40,1367.8271995,41034.815985,41034,1367.8,1368.4495265,41053.485795,41053,1368.4333333333334,1369.97659675,41099.2979025,41099,1369.9666666666667,1.8674762594473577,1,0,6,1,2,2,b'NB_18_frameB_foil.png',1371.8440730094474,41155.32219028342,41155,1371.8333333333333
41,1371.86508,41155.9524,41155,1371.8333333333333,1372.3868224999999,41171.604674999995,41171,1372.3666666666666,1373.9138475,41217.415425,41217,1373.9,0.8132205407455331,3,1,3,2,2,2,b'HB_3_frameA.png',1374.7270680407455,41241.812041222365,41241,1374.7
42,1374.734408,41242.03224,41242,1374.7333333333333,1375.2962747499998,41258.8882425,41258,1375.2666666666667,1376.82342525,41304.702757499996,41304,1376.8,1.5060093703832536,3,1,2,2,2,3,b'HB_1_frameB.png',1378.3294346203832,41349.88303861149,41349,1378.3
43,1378.35393175,41350.6179525,41350,1378.3333333333333,1378.91588125,41367.4764375,41367,1378.9,1380.44299675,41413.2899025,41413,1380.4333333333334,0.645346269262518,3,0,6,1,2,2,b'HB_1_frameA_foil.png',1381.0883430192625,41432.650290577876,41432,1381.0666666666666
44,1381.110804,41433.32412,41433,1381.1,1381.632613,41448.97839,41448,1381.6,1383.1797327499999,41495.3919825,41495,1383.1666666666667,0.6274159666063497,2,1,3,2,2,2,b'SB_8_frameB.png',1383.8071487166062,41514.21446149819,41514,1383.8
45,1383.8216539999999,41514.64962,41514,1383.8,1384.3433989999999,41530.30196999999,41530,1384.3333333333333,1385.8705035,41576.115105000004,41576,1385.8666666666666,1.031145967739576,2,0,6,1,2,2,b'SB_2_frameA_foil.png',1386.9016494677396,41607.04948403219,41607,1386.9
46,1386.9154819999999,41607.464459999996,41607,1386.9,1387.49743975,41624.9231925,41624,1387.4666666666667,1389.02457125,41670.7371375,41670,1389.0,1.479962881985557,3,0,6,1,2,2,b'HB_4_frameA_foil.png',1390.5045341319856,41715.13602395957,41715,1390.5
47,1390.5279285,41715.837855,41715,1390.5,1391.0896452499999,41732.6893575,41732,1391.0666666666666,1392.6168435,41778.505305,41778,1392.6,1.9559215760455118,3,0,7,1,2,3,b'HB_6_frameA_foil.png',1394.5727650760455,41837.182952281364,41837,1394.5666666666666
48,1394.5899239999999,41837.69772,41837,1394.5666666666666,1395.1718074999999,41855.154225,41855,1395.1666666666667,1396.71976225,41901.5928675,41901,1396.7,-1.096174662872727,1,0,6,1,2,2,b'NB_30_frameB_foil.png',1395.6235875871273,41868.70762761382,41868,1395.6
49,1395.6352077499998,41869.05623249999,41869,1395.6333333333334,1396.2171322499998,41886.513967499995,41886,1396.2,1397.76438175,41932.9314525,41932,1397.7333333333333,1.040342089250771,3,0,7,1,2,3,b'HB_6_frameB_foil.png',1398.8047238392508,41964.141715177524,41964,1398.8
50,1398.81452425,41964.4357275,41964,1398.8,1399.3964835,41981.894505,41981,1399.3666666666666,1400.943843,42028.31529,42028,1400.9333333333334,0.26798774736744235,3,1,2,2,2,3,b'HB_3_frameB.png',1401.2118307473675,42036.35492242102,42036,1401.2
51,1401.2300705,42036.902115,42036,1401.2,1401.75182525,42052.554757499995,42052,1401.7333333333333,1403.2991155,42098.973465,42098,1403.2666666666667,2.5709455063333735,2,1,3,2,2,2,b'SB_1_frameB.png',1405.8700610063333,42176.101830190004,42176,1405.8666666666666
52,1405.8812679999999,42176.43803999999,42176,1405.8666666666666,1406.4233709999999,42192.701129999994,42192,1406.4,1407.97041025,42239.1123075,42239,1407.9666666666667,1.4231349306810444,3,1,2,2,2,3,b'HB_4_frameA.png',1409.393545180681,42281.80635542043,42281,1409.3666666666666
53,1409.4003687499999,42282.011062499994,42282,1409.4,1409.9621499999998,42298.864499999996,42298,1409.9333333333334,1411.489446,42344.68338,42344,1411.4666666666667,1.6056240180605528,3,1,2,2,2,3,b'HB_3_frameA.png',1413.0950700180606,42392.852100541815,42392,1413.0666666666666
54,1413.11419375,42393.4258125,42393,1413.1,1413.6562695,42409.688085,42409,1413.6333333333334,1415.1833697499999,42455.501092499995,42455,1415.1666666666667,3.35290465892831,1,0,7,1,2,3,b'NB_8_frameB_foil.png',1418.5362744089282,42556.088232267844,42556,1418.5333333333333
55,1418.55682675,42556.704802500004,42556,1418.5333333333333,1419.0986464999999,42572.959395,42572,1419.0666666666666,1420.6258175,42618.774525,42618,1420.6,0.1482442276974325,3,0,6,1,2,2,b'HB_1_frameB_foil.png',1420.7740617276975,42623.221851830924,42623,1420.7666666666667
56,1420.7980615,42623.941844999994,42623,1420.7666666666667,1421.3398842499998,42640.1965275,42640,1421.3333333333333,1422.88698525,42686.6095575,42686,1422.8666666666666,0.5907041300961282,2,0,7,1,2,3,b'SB_2_frameB_foil.png',1423.477689380096,42704.330681402884,42704,1423.4666666666667
57,1423.49642225,42704.892667500004,42704,1423.4666666666667,1424.058252,42721.74756,42721,1424.0333333333333,1425.5854092499999,42767.562277499994,42767,1425.5666666666666,-3.1957033801336365,1,0,6,1,2,2,b'NB_11_frameA_foil.png',1422.3897058698662,42671.691176095985,42671,1422.3666666666666
58,1422.41310875,42672.3932625,42672,1422.4,1422.9950314999999,42689.850945,42689,1422.9666666666667,1424.522104,42735.66312,42735,1424.5,-1.6852491640020162,2,0,7,1,2,3,b'SB_5_frameA_foil.png',1422.8368548359979,42685.10564507994,42685,1422.8333333333333
59,1422.8563359999998,42685.69007999999,42685,1422.8333333333333,1423.41843,42702.552899999995,42702,1423.4,1424.9455249999999,42748.36575,42748,1424.9333333333334,2.27669354066893,3,1,3,2,2,2,b'HB_1_frameB.png',1427.2222185406688,42816.666556220065,42816,1427.2
60,1427.24564425,42817.3693275,42817,1427.2333333333333,1427.76726625,42833.017987499996,42833,1427.7666666666667,1429.29500575,42878.8501725,42878,1429.2666666666667,1.1425707331709418,1,1,2,2,2,3,b'NB_6_frameA.png',1430.437576483171,42913.12729449513,42913,1430.4333333333334
61,1430.45262475,42913.5787425,42913,1430.4333333333334,1431.0144109999999,42930.432329999996,42930,1431.0,1432.54158375,42976.2475125,42976,1432.5333333333333,0.8536775278389541,2,0,6,1,2,2,b'SB_8_frameA_foil.png',1433.395261277839,43001.85783833517,43001,1433.3666666666666
62,1433.4119365,43002.358094999996,43002,1433.4,1433.9739989999998,43019.21996999999,43019,1433.9666666666667,1435.50110425,43065.0331275,43065,1435.5,1.4325432428759086,1,1,2,2,2,3,b'NB_4_frameA.png',1436.933647492876,43108.00942478628,43108,1436.9333333333334
63,1436.9509827499999,43108.529482499995,43108,1436.9333333333334,1437.5128889999999,43125.38666999999,43125,1437.5,1439.0599415,43171.798245,43171,1439.0333333333333,0.5329889632212144,1,1,2,2,2,3,b'NB_7_frameB.png',1439.5929304632211,43187.78791389663,43187,1439.5666666666666
64,1439.604238,43188.12714,43188,1439.6,1440.1460415,43204.381245,43204,1440.1333333333334,1441.6932425,43250.797275,43250,1441.6666666666667,-2.7472701384667744,1,1,3,2,2,2,b'NB_20_frameA.png',1438.9459723615332,43168.379170846,43168,1438.9333333333334
65,1438.9650055,43168.950165,43168,1438.9333333333334,1439.4867649999999,43184.60294999999,43184,1439.4666666666667,1441.0138742499998,43230.4162275,43230,1441.0,1.2678077353302797,3,1,3,2,2,2,b'HB_1_frameB.png',1442.2816819853301,43268.45045955991,43268,1442.2666666666667
66,1442.3066365,43269.199094999996,43269,1442.3,1442.8484079999998,43285.45224,43285,1442.8333333333333,1444.3762345,43331.287035,43331,1444.3666666666666,1.9118937658076902,1,1,2,2,2,3,b'NB_9_frameB.png',1446.2881282658077,43388.64384797423,43388,1446.2666666666667
67,1446.296132,43388.88396,43388,1446.2666666666667,1446.878095,43406.34285,43406,1446.8666666666666,1448.4052115,43452.156344999996,43452,1448.4,-0.871452329947715,1,0,6,1,2,2,b'NB_27_frameA_foil.png',1447.5337591700522,43426.01277510157,43426,1447.5333333333333
68,1447.5444834999998,43426.33450499999,43426,1447.5333333333333,1448.08615525,43442.5846575,43442,1448.0666666666666,1449.6134312499998,43488.402937499995,43488,1449.6,1.5241891464174842,2,0,6,1,2,2,b'SB_3_frameA_foil.png',1451.1376203964173,43534.12861189252,43534,1451.1333333333334
69,1451.1483739999999,43534.451219999995,43534,1451.1333333333334,1451.7302155,43551.906465,43551,1451.7,1453.2574037499999,43597.72211249999,43597,1453.2333333333333,2.6279022830567556,1,0,3,2,1,2,b'NB_17_frameA_foil.png',1455.8853060330566,43676.559180991695,43676,1455.8666666666666
70,1455.893292,43676.79876,43676,1455.8666666666666,1456.4752724999998,43694.258174999995,43694,1456.4666666666667,1458.0224145,43740.672435,43740,1458.0,2.6314097564318217,2,1,2,2,2,3,b'SB_1_frameA.png',1460.6538242564318,43819.614727692955,43819,1460.6333333333334
71,1460.661791,43819.85373,43819,1460.6333333333334,1461.1835455,43835.506365,43835,1461.1666666666667,1462.71072875,43881.3218625,43881,1462.7,0.7353783111338998,3,1,2,2,2,3,b'HB_1_frameA.png',1463.446107061134,43903.38321183402,43903,1463.4333333333334
72,1463.4693395,43904.080185,43904,1463.4666666666667,1464.0914344999999,43922.743035,43922,1464.0666666666666,1465.6395435,43969.186304999996,43969,1465.6333333333334,0.6876839423330239,1,1,2,2,2,3,b'NB_12_frameA.png',1466.327227442333,43989.81682326999,43989,1466.3
73,1466.344722,43990.34166,43990,1466.3333333333333,1466.92685225,44007.8055675,44007,1466.9,1468.47399075,44054.2197225,44054,1468.4666666666667,0.9282275549485348,3,0,7,1,2,3,b'HB_9_frameA_foil.png',1469.4022183049485,44082.066549148454,44082,1469.4
74,1469.420522,44082.615659999996,44082,1469.4,1469.9222089999998,44097.666269999994,44097,1469.9,1471.4692049999999,44144.07614999999,44144,1471.4666666666667,2.969953862213515,1,0,2,2,1,3,b'NB_5_frameA_foil.png',1474.4391588622134,44233.1747658664,44233,1474.4333333333334
75,1474.45970975,44233.7912925,44233,1474.4333333333334,1474.981488,44249.444639999994,44249,1474.9666666666667,1476.5294285,44295.882855,44295,1476.5,2.0474883564165793,3,0,7,1,2,3,b'HB_5_frameB_foil.png',1478.5769168564166,44357.3075056925,44357,1478.5666666666666
76,1478.5870694999999,44357.61208499999,44357,1478.5666666666666,1479.14905725,44374.4717175,44374,1479.1333333333334,1480.67615375,44420.2846125,44420,1480.6666666666667,1.3014089755670284,3,1,2,2,2,3,b'HB_9_frameA.png',1481.977562725567,44459.32688176701,44459,1481.9666666666667
77,1482.0004637499999,44460.0139125,44460,1482.0,1482.5825942499998,44477.47782749999,44477,1482.5666666666666,1484.1297069999998,44523.891209999994,44523,1484.1,0.9291365753961145,2,1,2,2,2,3,b'SB_4_frameA.png',1485.058843575396,44551.76530726188,44551,1485.0333333333333
78,1485.0834997499999,44552.5049925,44552,1485.0666666666666,1485.5851765,44567.555295,44567,1485.5666666666666,1487.1325895,44613.977685,44613,1487.1,1.197615047223735,3,1,3,2,2,2,b'HB_2_frameA.png',1488.3302045472237,44649.906136416714,44649,1488.3
79,1488.35329125,44650.5987375,44650,1488.3333333333333,1488.93524875,44668.0574625,44668,1488.9333333333334,1490.46257775,44713.8773325,44713,1490.4333333333334,1.2961939727520075,2,0,6,1,2,2,b'SB_5_frameB_foil.png',1491.758771722752,44752.763151682564,44752,1491.7333333333333
80,1491.7793017499998,44753.37905249999,44753,1491.7666666666667,1492.3411605,44770.234814999996,44770,1492.3333333333333,1493.88930025,44816.679007499995,44816,1493.8666666666666,1.931012826587903,2,0,7,1,2,3,b'SB_1_frameB_foil.png',1495.8203130765878,44874.609392297636,44874,1495.8
81,1495.83099475,44874.9298425,44874,1495.8,1496.35262675,44890.5788025,44890,1496.3333333333333,1497.87989225,44936.3967675,44936,1497.8666666666666,2.7583226169008412,1,1,6,1,1,2,b'NB_3_frameB.png',1500.6382148669009,45019.14644600703,45019,1500.6333333333334
82,1500.6577005,45019.731015,45019,1500.6333333333334,1501.1796132499999,45035.3883975,45035,1501.1666666666667,1502.726748,45081.80244,45081,1502.7,1.7668108197540278,1,1,2,2,2,3,b'NB_17_frameB.png',1504.493558819754,45134.80676459262,45134,1504.4666666666667
83,1504.5080544999998,45135.241635,45135,1504.5,1505.09004625,45152.7013875,45152,1505.0666666666666,1506.61718225,45198.5154675,45198,1506.6,0.759915164893755,3,1,3,2,2,2,b'HB_5_frameB.png',1507.3770974148938,45221.312922446814,45221,1507.3666666666666
84,1507.3932399999999,45221.79719999999,45221,1507.3666666666666,1507.9350525,45238.051575,45238,1507.9333333333334,1509.48258275,45284.4774825,45284,1509.4666666666667,2.0409637919456145,2,1,2,2,2,3,b'SB_5_frameB.png',1511.5235465419455,45345.70639625836,45345,1511.5
85,1511.5454925,45346.364774999995,45346,1511.5333333333333,1512.10716975,45363.215092499995,45363,1512.1,1513.6344359999998,45409.033079999994,45409,1513.6333333333334,1.5468761789998098,3,0,6,1,2,2,b'HB_5_frameA_foil.png',1515.1813121789996,45455.43936536999,45455,1515.1666666666667
86,1515.186225,45455.586749999995,45455,1515.1666666666667,1515.7081572499999,45471.2447175,45471,1515.7,1517.2352927499999,45517.0587825,45517,1517.2333333333333,1.7314670820651372,1,1,7,1,1,3,b'NB_15_frameB.png',1518.966759832065,45569.00279496195,45569,1518.9666666666667
87,1518.9734675,45569.204025,45569,1518.9666666666667,1519.5153357499998,45585.4600725,45585,1519.5,1521.042487,45631.27461,45631,1521.0333333333333,0.4622050548059633,3,0,2,2,1,3,b'HB_2_frameA_foil.png',1521.504692054806,45645.14076164418,45645,1521.5
88,1521.5200785,45645.602354999995,45645,1521.5,1522.1020445,45663.061335,45663,1522.1,1523.6491744999998,45709.475235,45709,1523.6333333333334,2.605856047510315,2,1,2,2,2,3,b'SB_2_frameB.png',1526.2550305475102,45787.65091642531,45787,1526.2333333333333
89,1526.271924,45788.157719999996,45788,1526.2666666666667,1526.813978,45804.41934,45804,1526.8,1528.3410824999999,45850.232475,45850,1528.3333333333333,0.26635588607496175,2,1,2,2,2,3,b'SB_4_frameB.png',1528.6074383860748,45858.22315158224,45858,1528.6
90,1528.6318919999999,45858.956759999994,45858,1528.6,1529.2338069999998,45877.014209999994,45877,1529.2333333333333,1530.7818587499999,45923.455762499994,45923,1530.7666666666667,1.9609038213584427,2,0,2,2,1,3,b'SB_7_frameB_foil.png',1532.7427625713583,45982.28287714075,45982,1532.7333333333333
91,1532.7586965,45982.760895,45982,1532.7333333333333,1533.280452,45998.41356,45998,1533.2666666666667,1534.82757125,46044.8271375,46044,1534.8,0.6718393304854544,1,1,2,2,2,3,b'NB_5_frameB.png',1535.4994105804853,46064.98231741456,46064,1535.4666666666667
92,1535.52395925,46065.7187775,46065,1535.5,1536.10570525,46083.1711575,46083,1536.1,1537.63306175,46128.9918525,46128,1537.6,0.6260177641452174,2,1,2,2,2,3,b'SB_5_frameA.png',1538.2590795141452,46147.77238542436,46147,1538.2333333333333
93,1538.2832684999998,46148.498055,46148,1538.2666666666667,1538.78511,46163.5533,46163,1538.7666666666667,1540.3121967499999,46209.365902499994,46209,1540.3,1.4663471909316286,3,1,2,2,2,3,b'HB_4_frameB.png',1541.7785439409315,46253.35631822795,46253,1541.7666666666667
94,1541.803034,46254.09102,46254,1541.8,1542.3448535,46270.345605,46270,1542.3333333333333,1543.87193725,46316.1581175,46316,1543.8666666666666,2.718718383124724,1,1,3,2,2,2,b'NB_1_frameB.png',1546.5906556331247,46397.71966899374,46397,1546.5666666666666
95,1546.61129325,46398.3387975,46398,1546.6,1547.1531135,46414.593405,46414,1547.1333333333334,1548.680246,46460.40738,46460,1548.6666666666667,1.4358720184245612,2,0,3,2,1,2,b'SB_6_frameA_foil.png',1550.1161180184245,46503.483540552734,46503,1550.1
96,1550.1224352499999,46503.6730575,46503,1550.1,1550.68459175,46520.5377525,46520,1550.6666666666667,1552.21166825,46566.350047500004,46566,1552.2,2.852987441710866,2,0,2,2,1,3,b'SB_4_frameB_foil.png',1555.0646556917109,46651.93967075132,46651,1555.0333333333333
97,1555.072086,46652.16258,46652,1555.0666666666666,1555.654085,46669.62255,46669,1555.6333333333334,1557.18116775,46715.4350325,46715,1557.1666666666667,0.7146551032765274,2,1,6,1,1,2,b'SB_6_frameB.png',1557.8958228532765,46736.8746855983,46736,1557.8666666666666
98,1557.903501,46737.10503,46737,1557.9,1558.4252637499999,46752.7579125,46752,1558.4,1559.9524187499999,46798.5725625,46798,1559.9333333333334,-0.7486898098759411,1,0,3,2,1,2,b'NB_22_frameB_foil.png',1559.203728940124,46776.11186820372,46776,1559.2
99,1559.214614,46776.43842,46776,1559.2,1559.7163795,46791.491384999994,46791,1559.7,1561.24344325,46837.303297499995,46837,1561.2333333333333,0.89176480327842,1,0,3,2,1,2,b'NB_3_frameA_foil.png',1562.1352080532783,46864.05624159835,46864,1562.1333333333334
100,1562.15667025,46864.7001075,46864,1562.1333333333334,1562.71856125,46881.5568375,46881,1562.7,1564.2656682499999,46927.9700475,46927,1564.2333333333333,4.06762018538393,3,0,2,2,1,3,b'HB_1_frameA_foil.png',1568.3332884353838,47049.99865306151,47049,1568.3
101,1568.34992575,47050.4977725,47050,1568.3333333333333,1568.871663,47066.14989,47066,1568.8666666666666,1570.41931575,47112.579472499994,47112,1570.4,1.2421472153419018,3,0,3,2,1,2,b'HB_1_frameA_foil.png',1571.6614629653418,47149.843888960255,47149,1571.6333333333334
102,1571.6661722499998,47149.985167499995,47149,1571.6333333333334,1572.16816925,47165.0450775,47165,1572.1666666666667,1573.6952072499998,47210.8562175,47210,1573.6666666666667,3.1243418090489286,2,0,6,1,2,2,b'SB_1_frameB_foil.png',1576.8195490590488,47304.586471771465,47304,1576.8
103,1576.833408,47305.00224,47305,1576.8333333333333,1577.4153824999999,47322.461475,47322,1577.4,1578.9425657499999,47368.276972499996,47368,1578.9333333333334,0.9496515020618972,1,0,2,2,1,3,b'NB_4_frameB_foil.png',1579.8922172520618,47396.76651756185,47396,1579.8666666666666
104,1579.897912,47396.937359999996,47396,1579.8666666666666,1580.4399349999999,47413.19805,47413,1580.4333333333334,1581.96701575,47459.0104725,47459,1581.9666666666667,0.7957473151036538,3,1,2,2,2,3,b'HB_2_frameB.png',1582.7627630651036,47482.88289195311,47482,1582.7333333333333
105,1582.77253075,47483.1759225,47483,1582.7666666666667,1583.3145714999998,47499.437144999996,47499,1583.3,1584.8617379999998,47545.852139999995,47545,1584.8333333333333,0.2747016747161979,1,1,6,1,1,2,b'NB_28_frameA.png',1585.136439674716,47554.09319024148,47554,1585.1333333333334
106,1585.14454,47554.3362,47554,1585.1333333333334,1585.66632,47569.9896,47569,1585.6333333333334,1587.19344525,47615.8033575,47615,1587.1666666666667,1.2627800215941534,2,0,7,1,2,3,b'SB_8_frameB_foil.png',1588.4562252715941,47653.68675814782,47653,1588.4333333333334
107,1588.4647129999998,47653.94138999999,47653,1588.4333333333334,1589.0266035,47670.798105,47670,1589.0,1590.5745574999999,47717.236724999995,47717,1590.5666666666666,1.954023002386748,3,1,7,1,1,3,b'HB_6_frameA.png',1592.5285805023866,47775.8574150716,47775,1592.5
108,1592.54070775,47776.2212325,47776,1592.5333333333333,1593.1027952499999,47793.083857499994,47793,1593.1,1594.649945,47839.498349999994,47839,1594.6333333333334,0.30921116827084916,1,1,3,2,2,2,b'NB_19_frameB.png',1594.9591561682707,47848.77468504812,47848,1594.9333333333334
109,1594.9704769999998,47849.11431,47849,1594.9666666666667,1595.532401,47865.97203,47865,1595.5,1597.079477,47912.38431,47912,1597.0666666666666,0.6295308233620744,2,0,3,2,1,2,b'SB_1_frameA_foil.png',1597.709007823362,47931.27023470086,47931,1597.7
110,1597.7280845,47931.842535,47931,1597.7,1598.2701425,47948.104275,47948,1598.2666666666667,1599.79729675,47993.9189025,47993,1599.7666666666667,2.121646068226255,2,0,2,2,1,3,b'SB_1_frameA_foil.png',1601.9189428182262,48057.56828454679,48057,1601.9
111,1601.93751475,48058.1254425,48058,1601.9333333333334,1602.4391907499999,48073.1757225,48073,1602.4333333333334,1603.98631575,48119.589472499996,48119,1603.9666666666667,0.7111160636432032,3,1,2,2,2,3,b'HB_6_frameA.png',1604.697431813643,48140.922954409296,48140,1604.6666666666667
112,1604.705855,48141.17565,48141,1604.7,1605.2677735,48158.033205,48158,1605.2666666666667,1606.8150914999999,48204.452744999995,48204,1606.8,0.12725285032320244,2,1,6,1,1,2,b'SB_7_frameB.png',1606.942344350323,48208.270330509695,48208,1606.9333333333334
113,1606.9476197499998,48208.42859249999,48208,1606.9333333333334,1607.4695245,48224.085735,48224,1607.4666666666667,1608.9966135,48269.898405,48269,1608.9666666666667,0.7966361734852399,3,0,6,1,2,2,b'HB_8_frameA_foil.png',1609.7932496734852,48293.79749020455,48293,1609.7666666666667
114,1609.8011485,48294.034455,48294,1609.8,1610.302788,48309.08364,48309,1610.3,1611.82983275,48354.894982499995,48354,1611.8,1.1007624331341503,3,0,3,2,1,2,b'HB_5_frameB_foil.png',1612.930595183134,48387.91785549402,48387,1612.9
115,1612.94947575,48388.4842725,48388,1612.9333333333334,1613.5314329999999,48405.942989999996,48405,1613.5,1615.05855325,48451.756597499996,48451,1615.0333333333333,1.1958513899917307,3,1,3,2,2,2,b'HB_5_frameA.png',1616.2544046399917,48487.63213919975,48487,1616.2333333333333
116,1616.2626934999998,48487.88080499999,48487,1616.2333333333333,1616.844905,48505.34715,48505,1616.8333333333333,1618.37207775,48551.162332500004,48551,1618.3666666666666,0.7749524681148614,2,1,2,2,2,3,b'SB_9_frameB.png',1619.1470302181149,48574.410906543446,48574,1619.1333333333334
117,1619.1658685,48574.976055,48574,1619.1333333333334,1619.7478535,48592.435605,48592,1619.7333333333333,1621.2950059999998,48638.850179999994,48638,1621.2666666666667,0.902939704939854,2,0,2,2,1,3,b'SB_4_frameA_foil.png',1622.1979457049397,48665.93837114819,48665,1622.1666666666667
118,1622.2187509999999,48666.562529999996,48666,1622.2,1622.7806309999999,48683.41892999999,48683,1622.7666666666667,1624.3084115,48729.252345,48729,1624.3,1.4791196828791726,3,1,3,2,2,2,b'HB_6_frameB.png',1625.787531182879,48773.62593548637,48773,1625.7666666666667
119,1625.7959247499998,48773.87774249999,48773,1625.7666666666667,1626.3979494999999,48791.938485,48791,1626.3666666666666,1627.9451695,48838.355085,48838,1627.9333333333334,1.7057108022636385,3,0,2,2,1,3,b'HB_7_frameA_foil.png',1629.6508803022637,48889.52640906791,48889,1629.6333333333334
120,1629.6707795,48890.123385,48890,1629.6666666666667,1630.2326914999999,48906.98074499999,48906,1630.2,1631.75981275,48952.794382500004,48952,1631.7333333333333,-0.004320755881053628,1,0,2,2,1,3,b'NB_2_frameB_foil.png',1631.755491994119,48952.66475982357,48952,1631.7333333333333
121,1631.77144475,48953.1433425,48953,1631.7666666666667,1632.2731199999998,48968.1936,48968,1632.2666666666667,1633.8001155,49014.003465,49014,1633.8,0.280420873523326,2,1,2,2,2,3,b'SB_7_frameA.png',1634.0805363735233,49022.4160912057,49022,1634.0666666666666
122,1634.1046084999998,49023.138255,49023,1634.1,1634.66651475,49039.9954425,49039,1634.6333333333334,1636.2138885,49086.416655,49086,1636.2,1.3838321139810432,3,1,3,2,2,2,b'HB_2_frameA.png',1637.597720613981,49127.93161841943,49127,1637.5666666666666
123,1637.611821,49128.35463,49128,1637.6,1638.1736832499998,49145.2104975,49145,1638.1666666666667,1639.7210304999999,49191.630914999994,49191,1639.7,0.5658645274379523,3,0,3,2,1,2,b'HB_1_frameA_foil.png',1640.2868950274378,49208.60685082313,49208,1640.2666666666667
124,1640.292485,49208.77455,49208,1640.2666666666667,1640.81427825,49224.4283475,49224,1640.8,1642.341524,49270.24572,49270,1642.3333333333333,2.0580631930552045,2,1,2,2,2,3,b'SB_2_frameB.png',1644.3995871930551,49331.98761579165,49331,1644.3666666666666
125,1644.4076257499999,49332.2287725,49332,1644.4,1644.96951875,49349.0855625,49349,1644.9666666666667,1646.4966427499999,49394.899282499995,49394,1646.4666666666667,2.4656413891298143,2,0,2,2,1,3,b'SB_2_frameB_foil.png',1648.9622841391297,49468.86852417389,49468,1648.9333333333334
126,1648.96915675,49469.074702499995,49469,1648.9666666666667,1649.55108675,49486.532602499996,49486,1649.5333333333333,1651.0982175,49532.946525,49532,1651.0666666666666,2.3732158745970082,1,0,2,2,1,3,b'NB_26_frameB_foil.png',1653.471433374597,49604.143001237906,49604,1653.4666666666667
127,1653.48998525,49604.699557500004,49604,1653.4666666666667,1654.0317444999998,49620.952334999994,49620,1654.0,1655.5589452499999,49666.7683575,49666,1655.5333333333333,4.3651219989424135,1,0,2,2,1,3,b'NB_7_frameA_foil.png',1659.9240672489423,49797.722017468266,49797,1659.9
128,1659.9329217499999,49797.9876525,49797,1659.9,1660.4747854999998,49814.243565,49814,1660.4666666666667,1662.00189375,49860.0568125,49860,1662.0,0.5337654647046293,2,0,2,2,1,3,b'SB_3_frameB_foil.png',1662.5356592147045,49876.06977644114,49876,1662.5333333333333
129,1662.55871875,49876.7615625,49876,1662.5333333333333,1663.14067575,49894.220272499995,49894,1663.1333333333334,1664.68784025,49940.635207499996,49940,1664.6666666666667,2.237700876106828,2,0,2,2,1,3,b'SB_9_frameB_foil.png',1666.9255411261067,50007.7662337832,50007,1666.9
130,1666.9493235,50008.479705,50008,1666.9333333333334,1667.4510105,50023.530314999996,50023,1667.4333333333334,1668.9981799999998,50069.9454,50069,1668.9666666666667,1.0295826944602595,3,0,3,2,1,2,b'HB_3_frameB_foil.png',1670.02776269446,50100.832880833805,50100,1670.0
131,1670.0395732499999,50101.187197499996,50101,1670.0333333333333,1670.56138575,50116.8415725,50116,1670.5333333333333,1672.1083967499999,50163.25190249999,50163,1672.1,0.0992732527647604,2,0,6,1,2,2,b'SB_1_frameB_foil.png',1672.2076700027646,50166.23010008294,50166,1672.2
132,1672.22985,50166.8955,50166,1672.2,1672.7518304999999,50182.55491499999,50182,1672.7333333333333,1674.2789655,50228.368964999994,50228,1674.2666666666667,1.0691145684068033,3,0,3,2,1,2,b'HB_4_frameA_foil.png',1675.3480800684067,50260.4424020522,50260,1675.3333333333333
133,1675.36669925,50261.0009775,50261,1675.3666666666666,1675.928575,50277.85725,50277,1675.9,1677.4558665,50323.675995,50323,1677.4333333333334,1.9690871385100763,2,0,3,2,1,2,b'SB_7_frameA_foil.png',1679.42495363851,50382.7486091553,50382,1679.4
134,1679.4316505,50382.949515,50382,1679.4,1679.9935409999998,50399.806229999995,50399,1679.9666666666667,1681.52057975,50445.617392500004,50445,1681.5,3.6107422530985787,1,1,2,2,2,3,b'NB_22_frameA.png',1685.1313220030986,50553.93966009296,50553,1685.1
135,1685.1457639999999,50554.372919999994,50554,1685.1333333333334,1685.66751675,50570.0255025,50570,1685.6666666666667,1687.21476375,50616.4429125,50616,1687.2,1.0566961408821953,3,0,3,2,1,2,b'HB_4_frameB_foil.png',1688.2714598908822,50648.143796726465,50648,1688.2666666666667
136,1688.29121625,50648.7364875,50648,1688.2666666666667,1688.8333149999999,50664.999449999996,50664,1688.8,1690.3804555,50711.413665,50711,1690.3666666666666,-1.6476611115631385,1,1,2,2,2,3,b'NB_29_frameB.png',1688.7327943884368,50661.9838316531,50661,1688.7
137,1688.741413,50662.24239,50662,1688.7333333333333,1689.28326225,50678.4978675,50678,1689.2666666666667,1690.8306095,50724.918285,50724,1690.8,1.4886339776476234,1,0,3,2,1,2,b'NB_28_frameB_foil.png',1692.3192434776477,50769.57730432943,50769,1692.3
138,1692.3263239999999,50769.78971999999,50769,1692.3,1692.8280525,50784.841575,50784,1692.8,1694.3751949999998,50831.255849999994,50831,1694.3666666666666,0.2989317513165588,2,0,3,2,1,2,b'SB_4_frameA_foil.png',1694.6741267513164,50840.22380253949,50840,1694.6666666666667
139,1694.6834602499998,50840.5038075,50840,1694.6666666666667,1695.245373,50857.361189999996,50857,1695.2333333333333,1696.77262875,50903.1788625,50903,1696.7666666666667,2.058778795055332,1,1,6,1,1,2,b'NB_21_frameB.png',1698.8314075450553,50964.94222635166,50964,1698.8
140,1698.85596175,50965.6788525,50965,1698.8333333333333,1699.4178115,50982.534345,50982,1699.4,1700.9650155,51028.950465,51028,1700.9333333333334,2.422675205481937,3,1,6,1,1,2,b'HB_8_frameB.png',1703.3876907054819,51101.63072116446,51101,1703.3666666666666
141,1703.4006534999999,51102.019604999994,51102,1703.4,1703.96257275,51118.8771825,51118,1703.9333333333334,1705.49035775,51164.710732499996,51164,1705.4666666666667,3.234269664122621,3,0,7,1,2,3,b'HB_2_frameB_foil.png',1708.7246274141226,51261.73882242368,51261,1708.7
142,1708.74255125,51262.276537499994,51262,1708.7333333333333,1709.324527,51279.73581,51279,1709.3,1710.85186525,51325.5559575,51325,1710.8333333333333,0.29277681536950695,2,1,2,2,2,3,b'SB_1_frameB.png',1711.1446420653695,51334.33926196108,51334,1711.1333333333334
143,1711.16244725,51334.8734175,51334,1711.1333333333334,1711.6640894999998,51349.922685,51349,1711.6333333333334,1713.1913204999998,51395.739615,51395,1713.1666666666667,0.8077783073258615,3,1,2,2,2,3,b'HB_5_frameA.png',1713.9990988073257,51419.97296421977,51419,1713.9666666666667
144,1714.016594,51420.49782,51420,1714.0,1714.5985529999998,51437.956589999994,51437,1714.5666666666666,1716.1256965,51483.770895,51483,1716.1,-0.6654080641310429,1,0,7,1,2,3,b'NB_10_frameB_foil.png',1715.460288435869,51463.80865307607,51463,1715.4333333333334
145,1715.47377725,51464.2133175,51464,1715.4666666666667,1715.97551075,51479.2653225,51479,1715.9666666666667,1717.5226524999998,51525.679574999995,51525,1717.5,2.5434437619842356,2,0,2,2,1,3,b'SB_9_frameA_foil.png',1720.066096261984,51601.98288785952,51601,1720.0333333333333
146,1720.075233,51602.25699,51602,1720.0666666666666,1720.6574105,51619.722315,51619,1720.6333333333334,1722.2054125,51666.162375,51666,1722.2,0.8577125867504947,1,1,2,2,2,3,b'NB_27_frameB.png',1723.0631250867505,51691.89375260251,51691,1723.0333333333333
147,1723.0746374999999,51692.23912499999,51692,1723.0666666666666,1723.5763272499998,51707.289817499994,51707,1723.5666666666666,1725.1036937499998,51753.110812499996,51753,1725.1,2.6729266810543777,1,0,7,1,2,3,b'NB_24_frameB_foil.png',1727.7766204310542,51833.29861293163,51833,1727.7666666666667
148,1727.80067025,51834.0201075,51834,1727.8,1728.3023965,51849.071895,51849,1728.3,1729.829553,51894.88659,51894,1729.8,0.0,1,0,1,0,1,0,b'NB_13_frameA_foil.png',1729.829553,51894.88659,51894,1729.8
149,1728.9480959999999,51868.442879999995,51868,1728.9333333333334,1729.44980225,51883.494067499996,51883,1729.4333333333334,1730.99694875,51929.9084625,51929,1730.9666666666667,0.8296621079807665,2,0,2,2,1,3,b'SB_6_frameB_foil.png',1731.8266108579808,51954.79832573942,51954,1731.8
150,1731.834609,51955.03827,51955,1731.8333333333333,1732.3965305,51971.895915,51971,1732.3666666666666,1733.923511,52017.70533,52017,1733.9,1.3601052286248887,3,1,2,2,2,3,b'HB_4_frameB.png',1735.2836162286249,52058.508486858744,52058,1735.2666666666667
151,1735.29636125,52058.8908375,52058,1735.2666666666667,1735.79798125,52073.9394375,52073,1735.7666666666667,1737.3452747499998,52120.35824249999,52120,1737.3333333333333,1.1345090281683952,1,1,2,2,2,3,b'NB_14_frameA.png',1738.4797837781682,52154.39351334504,52154,1738.4666666666667
152,1738.4884029999998,52154.652089999996,52154,1738.4666666666667,1739.0102175,52170.306525,52170,1739.0,1740.5373379999999,52216.12014,52216,1740.5333333333333,3.1957125878143415,1,0,2,2,1,3,b'NB_12_frameB_foil.png',1743.7330505878142,52311.99151763443,52311,1743.7
153,1743.7490504999998,52312.471515,52312,1743.7333333333333,1744.290828,52328.724839999995,52328,1744.2666666666667,1745.81810125,52374.5430375,52374,1745.8,1.6521761260919448,3,1,6,1,1,2,b'HB_1_frameA.png',1747.4702773760919,52424.10832128276,52424,1747.4666666666667
154,1747.48478375,52424.5435125,52424,1747.4666666666667,1748.0067225,52440.201675000004,52440,1748.0,1749.5338325,52486.014975,52486,1749.5333333333333,-0.07379810598285985,2,1,2,2,2,3,b'SB_6_frameB.png',1749.4600343940172,52483.80103182051,52483,1749.4333333333334
155,1749.474817,52484.244510000004,52484,1749.4666666666667,1750.0365729999999,52501.09718999999,52501,1750.0333333333333,1751.56391825,52546.917547499994,52546,1751.5333333333333,0.988630419025867,1,0,2,2,1,3,b'NB_6_frameB_foil.png',1752.5525486690258,52576.57646007078,52576,1752.5333333333333
156,1752.5716787499998,52577.1503625,52577,1752.5666666666666,1753.09321975,52592.796592499995,52592,1753.0666666666666,1754.6205665,52638.616995,52638,1754.6,1.368152808972809,2,1,2,2,2,3,b'SB_2_frameA.png',1755.9887193089728,52679.66157926918,52679,1755.9666666666667
157,1755.99723925,52679.9171775,52679,1755.9666666666667,1756.5591339999999,52696.77402,52696,1756.5333333333333,1758.1062989999998,52743.188969999996,52743,1758.1,3.503538227163517,1,1,2,2,2,3,b'NB_13_frameB.png',1761.6098372271633,52848.2951168149,52848,1761.6
158,1761.6236185,52848.708555,52848,1761.6,1762.1453677499999,52864.3610325,52864,1762.1333333333334,1763.69258475,52910.7775425,52910,1763.6666666666667,0.1337914819305297,2,1,3,2,2,2,b'SB_1_frameA.png',1763.8263762319305,52914.791286957916,52914,1763.8
159,1763.8435605,52915.306814999996,52915,1763.8333333333333,1764.3654944999998,52930.96483499999,52930,1764.3333333333333,1765.8925642499999,52976.776927499996,52976,1765.8666666666666,2.210886192628095,1,0,3,2,1,2,b'NB_1_frameA_foil.png',1768.103450442628,53043.10351327884,53043,1768.1
160,1768.123558,53043.70674,53043,1768.1,1768.6453749999998,53059.361249999994,53059,1768.6333333333334,1770.17266075,53105.1798225,53105,1770.1666666666667,-0.2585312162118498,1,0,3,2,1,2,b'NB_9_frameA_foil.png',1769.9141295337881,53097.42388601365,53097,1769.9
161,1769.920971,53097.62913,53097,1769.9,1770.48285375,53114.4856125,53114,1770.4666666666667,1772.0299974999998,53160.89992499999,53160,1772.0,4.407618019871734,1,0,2,2,1,3,b'NB_16_frameB_foil.png',1776.4376155198715,53293.12846559615,53293,1776.4333333333334
162,1776.44747425,53293.4242275,53293,1776.4333333333334,1777.02947275,53310.8841825,53310,1777.0,1778.576703,53357.30109,53357,1778.5666666666666,-0.8673728155154095,2,1,2,2,2,3,b'SB_3_frameB.png',1777.7093301844845,53331.27990553454,53331,1777.7
163,1777.7249499999998,53331.748499999994,53331,1777.7,1778.2266395,53346.799184999996,53346,1778.2,1779.773698,53393.21094,53393,1779.7666666666667,2.387474374678277,3,1,6,1,1,2,b'HB_8_frameB.png',1782.1611723746782,53464.835171240346,53464,1782.1333333333334
164,1782.1701464999999,53465.104394999995,53465,1782.1666666666667,1782.71197775,53481.3593325,53481,1782.7,1784.2599472499999,53527.798417499995,53527,1784.2333333333333,1.453884537815611,3,1,2,2,2,3,b'HB_1_frameB.png',1785.7138317878155,53571.41495363446,53571,1785.7
165,1785.7286124999998,53571.858374999996,53571,1785.7,1786.250546,53587.51638,53587,1786.2333333333333,1787.7976859999999,53633.93058,53633,1787.7666666666667,0.9298597794804664,2,0,7,1,2,3,b'SB_2_frameA_foil.png',1788.7275457794804,53661.82637338441,53661,1788.7
166,1788.7408615,53662.225845,53662,1788.7333333333333,1789.26251575,53677.875472499996,53677,1789.2333333333333,1790.7897572499999,53723.692717499995,53723,1790.7666666666667,-0.7454716950887814,2,0,6,1,2,2,b'SB_5_frameB_foil.png',1790.044285554911,53701.32856664733,53701,1790.0333333333333
167,1790.0656915,53701.970745,53701,1790.0333333333333,1790.5675755,53717.027265,53717,1790.5666666666666,1792.114664,53763.43992,53763,1792.1,1.181281505170773,3,0,2,2,1,3,b'HB_6_frameB_foil.png',1793.2959455051707,53798.87836515512,53798,1793.2666666666667
168,1793.30771725,53799.2315175,53799,1793.3,1793.889927,53816.69781,53816,1793.8666666666666,1795.436958,53863.10874,53863,1795.4333333333334,1.614822489929793,1,0,6,1,2,2,b'NB_25_frameA_foil.png',1797.0517804899298,53911.5534146979,53911,1797.0333333333333
169,1797.0682295,53912.046884999996,53912,1797.0666666666666,1797.61007225,53928.3021675,53928,1797.6,1799.1371702499998,53974.115107499994,53974,1799.1333333333334,1.6613968711171765,3,1,2,2,2,3,b'HB_2_frameA.png',1800.798567121117,54023.95701363351,54023,1800.7666666666667
170,1800.8039139999998,54024.117419999995,54024,1800.8,1801.3258945,54039.776835,54039,1801.3,1802.8730107499998,54086.19032249999,54086,1802.8666666666666,1.124255904011079,2,1,6,1,1,2,b'SB_3_frameA.png',1803.997266654011,54119.917999620324,54119,1803.9666666666667
171,1804.01378925,54120.4136775,54120,1804.0,1804.5555862499998,54136.66758749999,54136,1804.5333333333333,1806.1034472499998,54183.103417499995,54183,1806.1,0.2194511784655333,3,0,6,1,2,2,b'HB_7_frameB_foil.png',1806.3228984284654,54189.68695285396,54189,1806.3
172,1806.34233075,54190.269922499996,54190,1806.3333333333333,1806.8842339999999,54206.527019999994,54206,1806.8666666666666,1808.41133975,54252.3401925,54252,1808.4,-1.519147853301547,2,1,2,2,2,3,b'SB_1_frameA.png',1806.8921918966985,54206.76575690095,54206,1806.8666666666666
173,1806.9118165,54207.354495,54207,1806.9,1807.49399275,54224.819782499995,54224,1807.4666666666667,1809.0211407499999,54270.6342225,54270,1809.0,0.4034248862481036,2,1,2,2,2,3,b'SB_1_frameB.png',1809.424565636248,54282.73696908744,54282,1809.4
174,1809.4434684999999,54283.30405499999,54283,1809.4333333333334,1809.96543475,54298.9630425,54298,1809.9333333333334,1811.5126375,54345.379125,54345,1811.5,-1.8002940779369965,1,1,2,2,2,3,b'NB_26_frameA.png',1809.712343422063,54291.37030266189,54291,1809.7
175,1809.71987675,54291.596302499995,54291,1809.7,1810.301867,54309.05601,54309,1810.3,1811.8290155,54354.870465,54354,1811.8,-0.5009386996243848,1,0,2,2,1,3,b'NB_23_frameA_foil.png',1811.3280768003756,54339.84230401127,54339,1811.3
176,1811.3469309999998,54340.407929999994,54340,1811.3333333333333,1811.8886102499998,54356.658307499994,54356,1811.8666666666666,1813.415874,54402.476220000004,54402,1813.4,1.500284423625999,3,0,3,2,1,2,b'HB_2_frameB_foil.png',1814.916158423626,54447.484752708784,54447,1814.9
177,1814.92974125,54447.8922375,54447,1814.9,1815.4688485,54464.065454999996,54464,1815.4666666666667,1817.02839125,54510.851737499994,54510,1817.0,0.8950599513700581,2,1,6,1,1,2,b'SB_30_frameA.png',1817.92345120137,54537.703536041096,54537,1817.9
178,1817.9905305,54539.715915,54539,1817.9666666666667,1818.50972,54555.2916,54555,1818.5,1820.01544025,54600.4632075,54600,1820.0,0.9114387139270548,2,0,6,1,2,2,b'SB_30_frameB_foil.png',1820.926878963927,54627.80636891781,54627,1820.9
179,1820.953237,54628.597109999995,54628,1820.9333333333334,1821.5419272499998,54646.257817499994,54646,1821.5333333333333,1823.1181315,54693.543945,54693,1823.1,0.9619704681244912,3,1,2,2,2,3,b'HB_30_frameB.png',1824.0801019681244,54722.40305904373,54722,1824.0666666666666
180,1824.11974025,54723.5922075,54723,1824.1,1824.681239,54740.43717,54740,1824.6666666666667,1826.2156982499998,54786.4709475,54786,1826.2,-0.07662278511998011,3,0,6,1,2,2,b'HB_30_frameA_foil.png',1826.1390754648799,54784.1722639464,54784,1826.1333333333334
