trial_num,fixcross_time,fixation_HZ,fixation_bin,fixation_regarded,start_time,Fstart_HZ,Fstart_bin,Fstart_regarded,stop_time,Fstop_HZ,Fstop_bin,Fstop_regarded,RT,boundary_type,stimuli_type,resp_value,old_new,accuracy,confidence,frameName,response_time,response_HZ,response_bin,response_regarded
1,1124.5368315,33736.104945,33736,1124.5333333333333,1125.08680375,33752.6041125,33752,1125.0666666666666,1126.6219899999999,33798.6597,33798,1126.6,1.6332888931501657,2,0,7,1,2,3,b'SB_1_frameB_foil.png',1128.25527889315,33847.6583667945,33847,1128.2333333333333
2,1128.2668925,33848.006775,33848,1128.2666666666667,1128.7833985,33863.501955,33863,1128.7666666666667,1130.3170025,33909.510075,33909,1130.3,2.2845681502949446,1,1,3,2,2,2,b'NB_27_frameB.png',1132.601570650295,33978.04711950885,33978,1132.6
3,1132.62506825,33978.7520475,33978,1132.6,1133.09159325,33992.7477975,33992,1133.0666666666666,1134.6251915,34038.755745,34038,1134.6,1.6828007120639086,3,1,3,2,2,2,b'HB_1_frameA.png',1136.307992212064,34089.23976636192,34089,1136.3
4,1136.3166247499998,34089.49874249999,34089,1136.3,1136.8831627499999,34106.494882499996,34106,1136.8666666666666,1138.416704,34152.50112,34152,1138.4,2.491732299560681,1,0,6,1,2,2,b'NB_15_frameA_foil.png',1140.9084362995607,34227.25308898682,34227,1140.9
5,1140.91750375,34227.5251125,34227,1140.9,1141.46749375,34244.0248125,34244,1141.4666666666667,1143.0012345,34290.037035,34290,1143.0,1.732952824095264,3,1,3,2,2,2,b'HB_2_frameA.png',1144.7341873240953,34342.02561972286,34342,1144.7333333333333
6,1144.7449315,34342.347944999994,34342,1144.7333333333333,1145.26191075,34357.8573225,34357,1145.2333333333333,1146.795089,34403.85267,34403,1146.7666666666667,2.722789908759296,3,0,6,1,2,2,b'HB_2_frameB_foil.png',1149.5178789087593,34485.53636726278,34485,1149.5
7,1149.5352135,34486.056405,34486,1149.5333333333333,1150.06851625,34502.055487499994,34502,1150.0666666666666,1151.60210025,34548.0630075,34548,1151.6,0.3386124779935926,1,0,6,1,2,2,b'NB_10_frameB_foil.png',1151.9407127279935,34558.22138183981,34558,1151.9333333333334
8,1151.945642,34558.36926,34558,1151.9333333333334,1152.44554125,34573.3662375,34573,1152.4333333333334,1153.979091,34619.372729999995,34619,1153.9666666666667,1.0534299365244806,3,1,2,2,2,3,b'HB_6_frameA.png',1155.0325209365244,34650.97562809573,34650,1155.0
9,1155.0387805,34651.163415,34651,1155.0333333333333,1155.555265,34666.65795,34666,1155.5333333333333,1157.088915,34712.66745,34712,1157.0666666666666,2.400998573517427,1,1,3,2,2,2,b'NB_13_frameB.png',1159.4899135735175,34784.69740720552,34784,1159.4666666666667
10,1159.4975487499999,34784.92646249999,34784,1159.4666666666667,1159.98090375,34799.427112499994,34799,1159.9666666666667,1161.5146275,34845.438825,34845,1161.5,1.2199718337506056,1,1,2,2,2,3,b'NB_12_frameA.png',1162.7345993337506,34882.037980012516,34882,1162.7333333333333
11,1162.750147,34882.50441,34882,1162.7333333333333,1163.2667975,34898.003925,34898,1163.2666666666667,1164.80036075,34944.0108225,34944,1164.8,0.8923827009275556,3,0,7,1,2,3,b'HB_8_frameA_foil.png',1165.6927434509275,34970.78230352783,34970,1165.6666666666667
12,1165.7081715,34971.245145,34971,1165.7,1166.2581727499999,34987.745182499995,34987,1166.2333333333333,1167.791725,35033.75175,35033,1167.7666666666667,-0.7951388184446841,1,1,2,2,2,3,b'NB_4_frameA.png',1166.9965861815554,35009.89758544666,35009,1166.9666666666667
13,1167.014676,35010.44028,35010,1167.0,1167.514611,35025.438330000004,35025,1167.5,1169.04837225,35071.4511675,35071,1169.0333333333333,2.10017635114491,2,0,7,1,2,3,b'SB_7_frameA_foil.png',1171.148548601145,35134.45645803435,35134,1171.1333333333334
14,1171.158492,35134.75476,35134,1171.1333333333334,1171.64177225,35149.2531675,35149,1171.6333333333334,1173.175328,35195.25984,35195,1173.1666666666667,-1.0281107190530747,1,0,7,1,2,3,b'NB_19_frameA_foil.png',1172.147217280947,35164.41651842841,35164,1172.1333333333334
15,1172.1541499999998,35164.6245,35164,1172.1333333333334,1172.6541312499999,35179.62393749999,35179,1172.6333333333334,1174.18782725,35225.6348175,35225,1174.1666666666667,2.5081353199202567,1,0,7,1,2,3,b'NB_1_frameA_foil.png',1176.6959625699203,35300.87887709761,35300,1176.6666666666667
16,1176.7046905,35301.140715,35301,1176.7,1177.27129575,35318.1388725,35318,1177.2666666666667,1178.8048832499999,35364.1464975,35364,1178.8,1.9212189794052392,3,0,7,1,2,3,b'HB_4_frameA_foil.png',1180.7261022294051,35421.783066882155,35421,1180.7
17,1180.728836,35421.86508,35421,1180.7,1181.26221275,35437.8663825,35437,1181.2333333333333,1182.79572375,35483.8717125,35483,1182.7666666666667,0.8054455684032291,1,0,6,1,2,2,b'NB_18_frameB_foil.png',1183.6011693184032,35508.03507955209,35508,1183.6
18,1183.6078905,35508.236715,35508,1183.6,1184.1078555,35523.235665,35523,1184.1,1185.6416525,35569.249575,35569,1185.6333333333334,1.569125580135733,1,0,6,1,2,2,b'NB_3_frameA_foil.png',1187.2107780801357,35616.32334240407,35616,1187.2
19,1187.21520025,35616.4560075,35616,1187.2,1187.7485084999998,35632.45525499999,35632,1187.7333333333333,1189.28233775,35678.4701325,35678,1189.2666666666667,2.0140567161142826,3,0,7,1,2,3,b'HB_6_frameB_foil.png',1191.2963944661142,35738.89183398343,35738,1191.2666666666667
20,1191.31308,35739.3924,35739,1191.3,1191.8297109999999,35754.89133,35754,1191.8,1193.3634419999998,35800.90325999999,35800,1193.3333333333333,1.1881417273543775,1,0,7,1,2,3,b'NB_7_frameA_foil.png',1194.5515837273542,35836.54751182062,35836,1194.5333333333333
21,1194.5568385,35836.705154999996,35836,1194.5333333333333,1195.04014225,35851.2042675,35851,1195.0333333333333,1196.573712,35897.211359999994,35897,1196.5666666666666,0.3292364727240056,1,0,7,1,2,3,b'NB_8_frameB_foil.png',1196.902948472724,35907.088454181714,35907,1196.9
22,1196.92052425,35907.6157275,35907,1196.9,1197.4705645,35924.116935,35924,1197.4666666666667,1199.004269,35970.12807,35970,1199.0,0.9433021848089993,1,0,7,1,2,3,b'NB_20_frameB_foil.png',1199.947571184809,35998.42713554427,35998,1199.9333333333334
23,1199.9523875,35998.571625,35998,1199.9333333333334,1200.45230775,36013.5692325,36013,1200.4333333333334,1201.986095,36059.58285,36059,1201.9666666666667,1.3123319437727332,3,1,2,2,2,3,b'HB_2_frameB.png',1203.2984269437727,36098.95280831318,36098,1203.2666666666667
24,1203.30500775,36099.1502325,36099,1203.3,1203.8216002499998,36114.64800749999,36114,1203.8,1205.37174875,36161.1524625,36161,1205.3666666666666,2.105612736893818,1,0,7,1,2,3,b'NB_28_frameB_foil.png',1207.4773614868939,36224.32084460682,36224,1207.4666666666667
25,1207.4901687499998,36224.7050625,36224,1207.4666666666667,1208.006837,36240.205109999995,36240,1208.0,1209.54029825,36286.208947499996,36286,1209.5333333333333,0.8162206374108791,2,1,2,2,2,3,b'SB_2_frameA.png',1210.3565188874109,36310.69556662232,36310,1210.3333333333333
26,1210.3728445,36311.185334999995,36311,1210.3666666666666,1210.92265875,36327.679762499996,36327,1210.9,1212.456373,36373.69119,36373,1212.4333333333334,1.3999602317344397,2,0,7,1,2,3,b'SB_1_frameB_foil.png',1213.8563332317344,36415.68999695203,36415,1213.8333333333333
27,1213.870844,36416.12532,36416,1213.8666666666666,1214.4040035,36432.120105,36432,1214.4,1215.937663,36478.12989,36478,1215.9333333333334,1.1200592427048832,3,1,2,2,2,3,b'HB_9_frameB.png',1217.0577222427048,36511.73166728114,36511,1217.0333333333333
28,1217.06329375,36511.898812499996,36511,1217.0333333333333,1217.57995175,36527.3985525,36527,1217.5666666666666,1219.1135155,36573.405464999996,36573,1219.1,1.423330126563087,2,1,2,2,2,3,b'SB_2_frameA.png',1220.536845626563,36616.10536879689,36616,1220.5333333333333
29,1220.5549515,36616.648545000004,36616,1220.5333333333333,1221.104934,36633.14802,36633,1221.1,1222.6385632499998,36679.1568975,36679,1222.6333333333334,1.0649502512533218,2,1,3,2,2,2,b'SB_2_frameB.png',1223.7035135012532,36711.1054050376,36711,1223.7
30,1223.708549,36711.25647,36711,1223.7,1224.191851,36725.75553,36725,1224.1666666666667,1225.725278,36771.75834,36771,1225.7,1.7647722957190126,2,1,2,2,2,3,b'SB_1_frameB.png',1227.490050295719,36824.70150887157,36824,1227.4666666666667
31,1227.50830125,36825.2490375,36825,1227.5,1228.008272,36840.24816,36840,1228.0,1229.5417567499999,36886.252702499994,36886,1229.5333333333333,1.3331188601441681,2,1,2,2,2,3,b'SB_1_frameB.png',1230.874875610144,36926.24626830432,36926,1230.8666666666666
32,1230.8783385,36926.350155,36926,1230.8666666666666,1231.3949245,36941.847734999996,36941,1231.3666666666666,1232.9284845,36987.854535,36987,1232.9,1.240203180583194,2,1,2,2,2,3,b'SB_7_frameA.png',1234.1686876805832,37025.060630417494,37025,1234.1666666666667
33,1234.1813627499998,37025.44088249999,37025,1234.1666666666667,1234.731344,37041.94032,37041,1234.7,1236.264848,37087.94544,37087,1236.2333333333333,-1.1379665657877922,1,0,7,1,2,3,b'NB_27_frameA_foil.png',1235.1268814342122,37053.80644302637,37053,1235.1
34,1235.1314015,37053.942045,37053,1235.1,1235.648015,37069.44045,37069,1235.6333333333334,1237.18170775,37115.451232499996,37115,1237.1666666666667,2.2898345980793238,2,0,7,1,2,3,b'SB_2_frameB_foil.png',1239.4715423480793,37184.146270442376,37184,1239.4666666666667
35,1239.4816524999999,37184.449575,37184,1239.4666666666667,1240.03164425,37200.9493275,37200,1240.0,1241.5654399999999,37246.9632,37246,1241.5333333333333,1.9712363672442734,1,0,7,1,2,3,b'NB_26_frameB_foil.png',1243.5366763672441,37306.10029101733,37306,1243.5333333333333
36,1243.55422875,37306.6268625,37306,1243.5333333333333,1244.03748725,37321.1246175,37321,1244.0333333333333,1245.57099725,37367.129917499995,37367,1245.5666666666666,1.4946914021857083,3,0,7,1,2,3,b'HB_9_frameA_foil.png',1247.0656886521856,37411.970659565566,37411,1247.0333333333333
37,1247.0823885,37412.471655,37412,1247.0666666666666,1247.63226075,37428.967822499995,37428,1247.6,1249.16579475,37474.9738425,37474,1249.1333333333334,0.4889057707041502,1,1,3,2,2,2,b'NB_28_frameA.png',1249.6547005207042,37489.64101562113,37489,1249.6333333333334
38,1249.659077,37489.77231,37489,1249.6333333333334,1250.125753,37503.77259,37503,1250.1,1251.65939675,37549.7819025,37549,1251.6333333333334,1.2250799799803644,3,0,6,1,2,2,b'HB_3_frameB_foil.png',1252.8844767299804,37586.53430189941,37586,1252.8666666666666
39,1252.902188,37587.06564,37587,1252.9,1253.468825,37604.06475,37604,1253.4666666666667,1255.00236475,37650.0709425,37650,1255.0,1.7892575121950358,2,1,2,2,2,3,b'SB_8_frameA.png',1256.791622262195,37703.74866786585,37703,1256.7666666666667
40,1256.79493,37703.8479,37703,1256.7666666666667,1257.32823525,37719.8470575,37719,1257.3,1258.86185875,37765.8557625,37765,1258.8333333333333,2.708301686681807,1,0,7,1,2,3,b'NB_25_frameA_foil.png',1261.5701604366818,37847.10481310046,37847,1261.5666666666666
41,1261.57251825,37847.1755475,37847,1261.5666666666666,1262.12253725,37863.6761175,37863,1262.1,1263.65604775,37909.6814325,37909,1263.6333333333334,2.305336499819532,2,0,6,1,2,2,b'SB_2_frameA_foil.png',1265.9613842498195,37978.84152749459,37978,1265.9333333333334
42,1265.96370575,37978.9111725,37978,1265.9333333333334,1266.44706625,37993.4119875,37993,1266.4333333333334,1267.98053675,38039.4161025,38039,1267.9666666666667,1.532529766438529,1,0,2,2,1,3,b'NB_4_frameB_foil.png',1269.5130665164386,38085.391995493155,38085,1269.5
43,1269.5175629999999,38085.526889999994,38085,1269.5,1270.0008444999999,38100.025335,38100,1270.0,1271.5346525,38146.039575,38146,1271.5333333333333,1.41193113848567,1,1,2,2,2,3,b'NB_15_frameB.png',1272.9465836384857,38188.39750915457,38188,1272.9333333333334
44,1272.95069675,38188.5209025,38188,1272.9333333333334,1273.45072125,38203.5216375,38203,1273.4333333333334,1274.984329,38249.52987,38249,1274.9666666666667,1.8476400994695723,3,0,7,1,2,3,b'HB_8_frameA_foil.png',1276.8319690994695,38304.959072984086,38304,1276.8
45,1276.84238375,38305.271512499996,38305,1276.8333333333333,1277.39226525,38321.7679575,38321,1277.3666666666666,1278.92571875,38367.7715625,38367,1278.9,0.4122981810942292,1,0,3,2,1,2,b'NB_23_frameA_foil.png',1279.3380169310942,38380.140507932825,38380,1279.3333333333333
46,1279.34874825,38380.4624475,38380,1279.3333333333333,1279.9153629999998,38397.460889999995,38397,1279.9,1281.449089,38443.472669999996,38443,1281.4333333333334,0.22620339645072818,1,1,7,1,1,3,b'NB_6_frameA.png',1281.6752923964507,38450.25877189352,38450,1281.6666666666667
47,1281.6876025,38450.628075,38450,1281.6666666666667,1282.18757825,38465.6273475,38465,1282.1666666666667,1283.7212642499999,38511.63792749999,38511,1283.7,1.8941871230490506,2,1,2,2,2,3,b'SB_9_frameA.png',1285.615451373049,38568.463541191464,38568,1285.6
48,1285.6293229999999,38568.879689999994,38568,1285.6,1286.1792535,38585.377605,38585,1286.1666666666667,1287.71304375,38631.391312499996,38631,1287.7,1.6954236351884902,3,1,2,2,2,3,b'HB_7_frameA.png',1289.4084673851885,38682.25402155565,38682,1289.4
49,1289.44287375,38683.2862125,38683,1289.4333333333334,1289.95937775,38698.781332499995,38698,1289.9333333333334,1291.49289325,38744.7867975,38744,1291.4666666666667,2.655830295290798,2,0,7,1,2,3,b'SB_8_frameA_foil.png',1294.1487235452907,38824.46170635872,38824,1294.1333333333334
50,1294.162425,38824.87275,38824,1294.1333333333334,1294.6290995,38838.872984999995,38838,1294.6,1296.16254575,38884.876372499995,38884,1296.1333333333334,-0.12097118189558387,3,0,7,1,2,3,b'HB_6_frameB_foil.png',1296.0415745681044,38881.24723704313,38881,1296.0333333333333
51,1296.046324,38881.38972,38881,1296.0333333333333,1296.596288,38897.88864,38897,1296.5666666666666,1298.1301035,38943.903105,38943,1298.1,1.6557273315265775,3,1,2,2,2,3,b'HB_5_frameB.png',1299.7858308315265,38993.574924945795,38993,1299.7666666666667
52,1299.788225,38993.64675,38993,1299.7666666666667,1300.25491675,39007.647502499996,39007,1300.2333333333333,1301.7886409999999,39053.65923,39053,1301.7666666666667,2.048549310537055,2,0,7,1,2,3,b'SB_9_frameB_foil.png',1303.837190310537,39115.11570931611,39115,1303.8333333333333
53,1303.84295625,39115.288687500004,39115,1303.8333333333333,1304.37628275,39131.2884825,39131,1304.3666666666666,1305.9098145,39177.294435,39177,1305.9,2.9760280521586537,1,0,2,2,1,3,b'NB_12_frameB_foil.png',1308.8858425521587,39266.57527656476,39266,1308.8666666666666
54,1308.89041,39266.7123,39266,1308.8666666666666,1309.407004,39282.210119999996,39282,1309.4,1310.9407325,39328.221975,39328,1310.9333333333334,2.064872347516939,2,0,7,1,2,3,b'SB_4_frameB_foil.png',1313.005604847517,39390.16814542551,39390,1313.0
55,1313.01047525,39390.314257499995,39390,1313.0,1313.5770565,39407.311695000004,39407,1313.5666666666666,1315.11057825,39453.31734749999,39453,1315.1,1.0853158696554601,3,0,6,1,2,2,b'HB_2_frameB_foil.png',1316.1958941196553,39485.87682358966,39485,1316.1666666666667
56,1316.2076977499999,39486.230932499995,39486,1316.2,1316.7076645,39501.229934999996,39501,1316.7,1318.24126125,39547.2378375,39547,1318.2333333333333,1.2058204023633152,3,1,7,1,1,3,b'HB_7_frameB.png',1319.4470816523633,39583.4124495709,39583,1319.4333333333334
57,1319.4650394999999,39583.951185,39583,1319.4333333333334,1319.94842025,39598.4526075,39598,1319.9333333333334,1321.482077,39644.462309999995,39644,1321.4666666666667,2.2049592272378504,2,1,2,2,2,3,b'SB_1_frameA.png',1323.6870362272377,39710.61108681713,39710,1323.6666666666667
58,1323.69457175,39710.837152500004,39710,1323.6666666666667,1324.24440425,39727.3321275,39727,1324.2333333333333,1325.77796675,39773.3390025,39773,1325.7666666666667,1.3165677974466234,2,1,7,1,1,3,b'SB_9_frameB.png',1327.0945345474465,39812.836036423396,39812,1327.0666666666666
59,1327.10861125,39813.258337499996,39813,1327.1,1327.59197225,39827.7591675,39827,1327.5666666666666,1329.1254795,39873.764385,39873,1329.1,1.7065018007997423,3,1,7,1,1,3,b'HB_2_frameA.png',1330.8319813007997,39924.959439023994,39924,1330.8
60,1330.83745725,39925.1237175,39925,1330.8333333333333,1331.337397,39940.12191,39940,1331.3333333333333,1332.87099225,39986.1297675,39986,1332.8666666666666,1.2295537693426013,2,1,2,2,2,3,b'SB_4_frameB.png',1334.1005460193426,40023.01638058028,40023,1334.1
61,1334.108299,40023.24897,40023,1334.1,1334.6083125,40038.249375,40038,1334.6,1336.14182,40084.2546,40084,1336.1333333333334,1.27304631867446,3,0,7,1,2,3,b'HB_1_frameA_foil.png',1337.4148663186745,40122.445989560234,40122,1337.4
62,1337.42486325,40122.745897500005,40122,1337.4,1337.9580879999999,40138.74264,40138,1337.9333333333334,1339.491734,40184.75202,40184,1339.4666666666667,0.3176699969917536,1,0,7,1,2,3,b'NB_2_frameB_foil.png',1339.8094039969917,40194.28211990975,40194,1339.8
63,1339.8250027499998,40194.750082499995,40194,1339.8,1340.3247797499998,40209.74339249999,40209,1340.3,1341.8582975,40255.748925,40255,1341.8333333333333,2.8531826736871153,1,1,3,2,2,2,b'NB_9_frameB.png',1344.711480173687,40341.34440521061,40341,1344.7
64,1344.7278649999998,40341.83594999999,40341,1344.7,1345.227833,40356.834989999996,40356,1345.2,1346.7613445,40402.840335,40402,1346.7333333333333,2.880429039010778,1,1,7,1,1,3,b'NB_5_frameB.png',1349.6417735390107,40489.253206170324,40489,1349.6333333333334
65,1349.6497419999998,40489.49225999999,40489,1349.6333333333334,1350.1830125,40505.490374999994,40505,1350.1666666666667,1351.7166432499998,40551.49929749999,40551,1351.7,2.2729730100836605,2,0,7,1,2,3,b'SB_5_frameB_foil.png',1353.9896162600835,40619.6884878025,40619,1353.9666666666667
66,1354.00154925,40620.0464775,40620,1354.0,1354.53489275,40636.046782499994,40636,1354.5333333333333,1356.0683502499999,40682.0505075,40682,1356.0666666666666,0.9038359075784683,3,0,7,1,2,3,b'HB_5_frameB_foil.png',1356.9721861575783,40709.16558472735,40709,1356.9666666666667
67,1356.98886425,40709.6659275,40709,1356.9666666666667,1357.52215475,40725.6646425,40725,1357.5,1359.05559025,40771.667707500004,40771,1359.0333333333333,1.4900823100470006,3,1,2,2,2,3,b'HB_8_frameB.png',1360.545672560047,40816.370176801414,40816,1360.5333333333333
68,1360.5491215,40816.473645,40816,1360.5333333333333,1361.09909475,40832.9728425,40832,1361.0666666666666,1362.63264975,40878.979492499995,40878,1362.6,2.188202583696693,2,1,7,1,1,3,b'SB_1_frameA.png',1364.8208523336966,40944.625570010896,40944,1364.8
69,1364.83171425,40944.9514275,40944,1364.8,1365.34839825,40960.4519475,40960,1365.3333333333333,1366.8819125,41006.457375,41006,1366.8666666666666,1.208362389355898,3,1,7,1,1,3,b'HB_3_frameA.png',1368.090274889356,41042.708246680675,41042,1368.0666666666666
70,1368.1040512499999,41043.121537499996,41043,1368.1,1368.6539524999998,41059.61857499999,41059,1368.6333333333334,1370.187653,41105.62959,41105,1370.1666666666667,1.344422419089824,2,1,7,1,1,3,b'SB_2_frameB.png',1371.5320754190898,41145.96226257269,41145,1371.5
71,1371.5347072499999,41146.041217499995,41146,1371.5333333333333,1372.0345849999999,41161.037549999994,41161,1372.0333333333333,1373.5682015,41207.046045,41207,1373.5666666666666,1.3687789551913738,3,0,3,2,1,2,b'HB_4_frameB_foil.png',1374.9369804551914,41248.109413655744,41248,1374.9333333333334
72,1374.9404682499999,41248.2140475,41248,1374.9333333333334,1375.490479,41264.71437,41264,1375.4666666666667,1377.0240515,41310.721545,41310,1377.0,1.6927085660863668,2,0,3,2,1,2,b'SB_1_frameA_foil.png',1378.7167600660864,41361.50280198259,41361,1378.7
73,1378.72371,41361.7113,41361,1378.7,1379.2404205,41377.212615000004,41377,1379.2333333333333,1380.7740347499998,41423.221042499994,41423,1380.7666666666667,1.7097471854649484,1,1,3,2,2,2,b'NB_20_frameA.png',1382.4837819354648,41474.51345806394,41474,1382.4666666666667
74,1382.4979505,41474.938514999994,41474,1382.4666666666667,1383.0145962499998,41490.4378875,41490,1383.0,1384.54820625,41536.4461875,41536,1384.5333333333333,1.7380090430378914,2,1,7,1,1,3,b'SB_3_frameB.png',1386.286215293038,41588.586458791135,41588,1386.2666666666667
75,1386.29707575,41588.9122725,41588,1386.2666666666667,1386.86375525,41605.9126575,41605,1386.8333333333333,1388.397286,41651.91858,41651,1388.3666666666666,2.030345803592354,2,1,7,1,1,3,b'SB_6_frameB.png',1390.4276318035922,41712.82895410777,41712,1390.4
76,1390.43254375,41712.976312499995,41712,1390.4,1390.93254125,41727.9762375,41727,1390.9,1392.4662799999999,41773.988399999995,41773,1392.4333333333334,0.7282335197087377,3,0,7,1,2,3,b'HB_6_frameA_foil.png',1393.1945135197086,41795.83540559126,41795,1393.1666666666667
77,1393.2076135,41796.228405,41796,1393.2,1393.7075495,41811.226485,41811,1393.7,1395.2410565,41857.231695,41857,1395.2333333333333,1.9132329861167818,2,1,6,1,1,2,b'SB_4_frameA.png',1397.1542894861168,41914.628684583506,41914,1397.1333333333334
78,1397.161608,41914.84824,41914,1397.1333333333334,1397.64486375,41929.3459125,41929,1397.6333333333334,1399.17839,41975.3517,41975,1399.1666666666667,2.215533967828378,1,1,2,2,2,3,b'NB_19_frameB.png',1401.3939239678284,42041.81771903485,42041,1401.3666666666666
79,1401.405919,42042.17757,42042,1401.4,1401.9558682499999,42058.6760475,42058,1401.9333333333334,1403.48950425,42104.6851275,42104,1403.4666666666667,1.0252586763817817,2,0,7,1,2,3,b'SB_4_frameA_foil.png',1404.5147629263818,42135.442887791454,42135,1404.5
80,1404.52139825,42135.6419475,42135,1404.5,1405.02136525,42150.6409575,42150,1405.0,1406.55497975,42196.6493925,42196,1406.5333333333333,2.0511794919148088,3,0,7,1,2,3,b'HB_2_frameB_foil.png',1408.6061592419148,42258.18477725745,42258,1408.6
81,1408.61938925,42258.5816775,42258,1408.6,1409.1360439999999,42274.08132,42274,1409.1333333333334,1410.669486,42320.08458,42320,1410.6666666666667,1.1160967603791505,1,0,7,1,2,3,b'NB_21_frameA_foil.png',1411.7855827603792,42353.56748281138,42353,1411.7666666666667
82,1411.7890535,42353.671604999996,42353,1411.7666666666667,1412.322303,42369.669089999996,42369,1412.3,1413.85607725,42415.6823175,42415,1413.8333333333333,1.471683535957709,3,1,7,1,1,3,b'HB_4_frameB.png',1415.3277607859577,42459.832823578734,42459,1415.3
83,1415.33396075,42460.0188225,42460,1415.3333333333333,1415.9006124999999,42477.01837499999,42477,1415.9,1417.434287,42523.02861,42523,1417.4333333333334,1.6509745272342116,3,0,7,1,2,3,b'HB_2_frameB_foil.png',1419.0852615272343,42572.55784581703,42572,1419.0666666666666
84,1419.1036004999999,42573.108015,42573,1419.1,1419.67024025,42590.1072075,42590,1419.6666666666667,1421.20387625,42636.11628749999,42636,1421.2,0.9591093808412552,1,0,7,1,2,3,b'NB_22_frameB_foil.png',1422.1629856308411,42664.88956892523,42664,1422.1333333333334
85,1422.1726979999999,42665.18094,42665,1422.1666666666667,1422.6727099999998,42680.1813,42680,1422.6666666666667,1424.20623925,42726.187177499996,42726,1424.2,0.9727092175744474,3,1,3,2,2,2,b'HB_2_frameA.png',1425.1789484675744,42755.36845402723,42755,1425.1666666666667
86,1425.19223025,42755.7669075,42755,1425.1666666666667,1425.69223975,42770.7671925,42770,1425.6666666666667,1427.22587325,42816.776197499996,42816,1427.2,2.2126253857277334,2,1,2,2,2,3,b'SB_5_frameA.png',1429.4384986357277,42883.15495907183,42883,1429.4333333333334
87,1429.4412845,42883.238535,42883,1429.4333333333334,1429.99129875,42899.7389625,42899,1429.9666666666667,1431.5249655,42945.748965,42945,1431.5,1.5110559877939522,3,1,7,1,1,3,b'HB_1_frameA.png',1433.036021487794,42991.08064463382,42991,1433.0333333333333
88,1433.0531715,42991.595145,42991,1433.0333333333333,1433.61982475,43008.5947425,43008,1433.6,1435.15331625,43054.5994875,43054,1435.1333333333334,2.251840907614678,3,0,7,1,2,3,b'HB_1_frameB_foil.png',1437.4051571576147,43122.154714728444,43122,1437.4
89,1437.4115689999999,43122.347069999996,43122,1437.4,1437.92844025,43137.8532075,43137,1437.9,1439.46180775,43183.8542325,43183,1439.4333333333334,3.1752417432144284,1,1,2,2,2,3,b'NB_23_frameB.png',1442.6370494932144,43279.111484796435,43279,1442.6333333333334
90,1442.6401555,43279.204665,43279,1442.6333333333334,1443.206846,43296.20538,43296,1443.2,1444.740348,43342.21044,43342,1444.7333333333333,1.7922021844424307,2,1,7,1,1,3,b'SB_6_frameA.png',1446.5325501844425,43395.976505533275,43395,1446.5
91,1446.54294175,43396.2882525,43396,1446.5333333333333,1447.126206,43413.786179999996,43413,1447.1,1448.65974425,43459.7923275,43459,1448.6333333333334,-1.62071793503128,1,1,7,1,1,3,b'NB_29_frameB.png',1447.0390263149686,43411.17078944906,43411,1447.0333333333333
92,1447.0559994999999,43411.679984999995,43411,1447.0333333333333,1447.57262375,43427.178712500005,43427,1447.5666666666666,1449.1062642499999,43473.187927499996,43473,1449.1,1.098230519797653,1,1,7,1,1,3,b'NB_14_frameA.png',1450.2044947697975,43506.134843093925,43506,1450.2
93,1450.21294625,43506.388387499996,43506,1450.2,1450.7628702499999,43522.886107499995,43522,1450.7333333333333,1452.29659025,43568.8977075,43568,1452.2666666666667,1.5496032785158604,3,0,7,1,2,3,b'HB_4_frameA_foil.png',1453.8461935285159,43615.385805855476,43615,1453.8333333333333
94,1453.860308,43615.80924,43615,1453.8333333333333,1454.3436179999999,43630.30854,43630,1454.3333333333333,1455.877241,43676.31723,43676,1455.8666666666666,1.3203774960711598,1,0,7,1,2,3,b'NB_11_frameA_foil.png',1457.197618496071,43715.928554882135,43715,1457.1666666666667
95,1457.2117934999999,43716.353805,43716,1457.2,1457.7284255,43731.852764999996,43731,1457.7,1459.26196775,43777.8590325,43777,1459.2333333333333,1.8424682857003063,2,0,7,1,2,3,b'SB_2_frameA_foil.png',1461.1044360357002,43833.133081071006,43833,1461.1
96,1461.1079937499999,43833.239812499996,43833,1461.1,1461.607863,43848.235889999996,43848,1461.6,1463.1415865,43894.24759499999,43894,1463.1333333333334,2.1700904238969088,3,0,7,1,2,3,b'HB_1_frameB_foil.png',1465.3116769238968,43959.3503077169,43959,1465.3
97,1465.3238764999999,43959.716295,43959,1465.3,1465.8904125,43976.712374999996,43976,1465.8666666666666,1467.4571999999998,44023.71599999999,44023,1467.4333333333334,1.88262038375251,3,1,7,1,1,3,b'HB_8_frameB.png',1469.3398203837523,44080.19461151257,44080,1469.3333333333333
98,1469.35611925,44080.6835775,44080,1469.3333333333333,1469.88937375,44096.6812125,44096,1469.8666666666666,1471.422918,44142.68754,44142,1471.4,1.8949376395903528,2,1,7,1,1,3,b'SB_3_frameA.png',1473.3178556395903,44199.53566918771,44199,1473.3
99,1473.3193872499999,44199.58161749999,44199,1473.3,1473.85277125,44215.5831375,44215,1473.8333333333333,1475.3863175,44261.589524999996,44261,1475.3666666666666,1.682553733466193,3,1,7,1,1,3,b'HB_3_frameA.png',1477.068871233466,44312.06613700398,44312,1477.0666666666666
100,1477.07187675,44312.1563025,44312,1477.0666666666666,1477.6052587499998,44328.15776249999,44328,1477.6,1479.13891475,44374.167442499995,44374,1479.1333333333334,1.6008486920036376,3,0,7,1,2,3,b'HB_9_frameB_foil.png',1480.7397634420036,44422.192903260104,44422,1480.7333333333333
101,1480.7488675,44422.466025,44422,1480.7333333333333,1481.298814,44438.96442,44438,1481.2666666666667,1482.8324185,44484.972555,44484,1482.8,1.4459532578475773,3,0,7,1,2,3,b'HB_7_frameB_foil.png',1484.2783717578475,44528.35115273543,44528,1484.2666666666667
102,1484.29224875,44528.7674625,44528,1484.2666666666667,1484.7755017499999,44543.2650525,44543,1484.7666666666667,1486.30901275,44589.2703825,44589,1486.3,1.845162559300661,2,0,7,1,2,3,b'SB_8_frameB_foil.png',1488.1541753093006,44644.62525927902,44644,1488.1333333333334
103,1488.15607725,44644.682317499995,44644,1488.1333333333334,1488.7227062499999,44661.6811875,44661,1488.7,1490.2562655,44707.687965,44707,1490.2333333333333,1.6109998668543994,2,0,7,1,2,3,b'SB_1_frameB_foil.png',1491.8672653668543,44756.01796100563,44756,1491.8666666666666
104,1491.8782677499998,44756.3480325,44756,1491.8666666666666,1492.34483675,44770.3451025,44770,1492.3333333333333,1493.87842075,44816.3526225,44816,1493.8666666666666,2.095682485261932,3,1,7,1,1,3,b'HB_5_frameA.png',1495.974103235262,44879.22309705786,44879,1495.9666666666667
105,1495.98283225,44879.4849675,44879,1495.9666666666667,1496.5161469999998,44895.48441,44895,1496.5,1498.0498157499999,44941.494472499995,44941,1498.0333333333333,1.8711154898628592,3,0,7,1,2,3,b'HB_3_frameA_foil.png',1499.9209312398627,44997.62793719588,44997,1499.9
106,1499.9300335,44997.901005,44997,1499.9,1500.41329,45012.3987,45012,1500.4,1501.9469952499999,45058.409857499995,45058,1501.9333333333334,0.909102727426216,3,0,7,1,2,3,b'HB_1_frameA_foil.png',1502.856097977426,45085.68293932278,45085,1502.8333333333333
107,1502.864178,45085.92534,45085,1502.8333333333333,1503.3808032499999,45101.4240975,45101,1503.3666666666666,1504.9146355,45147.439065,45147,1504.9,0.643362094881013,1,1,2,2,2,3,b'NB_1_frameB.png',1505.557997594881,45166.73992784643,45166,1505.5333333333333
108,1505.56830475,45167.0491425,45167,1505.5666666666666,1506.11829275,45183.548782499995,45183,1506.1,1507.65183125,45229.5549375,45229,1507.6333333333334,2.309041794622317,3,1,7,1,1,3,b'HB_1_frameB.png',1509.9608730446223,45298.82619133867,45298,1509.9333333333334
109,1509.977635,45299.32905,45299,1509.9666666666667,1510.49428675,45314.8286025,45314,1510.4666666666667,1512.0280982499999,45360.842947499994,45360,1512.0,1.6085159229114652,3,1,7,1,1,3,b'HB_1_frameB.png',1513.6366141729113,45409.09842518734,45409,1513.6333333333334
110,1513.65233275,45409.5699825,45409,1513.6333333333334,1514.119002,45423.57006,45423,1514.1,1515.6525315,45469.575945,45469,1515.6333333333334,1.255005689105019,2,0,7,1,2,3,b'SB_5_frameB_foil.png',1516.907537189105,45507.22611567315,45507,1516.9
111,1516.9198402499999,45507.595207499995,45507,1516.9,1517.43651975,45523.095592499994,45523,1517.4333333333334,1518.96989925,45569.0969775,45569,1518.9666666666667,1.9671492530032992,3,0,6,1,2,2,b'HB_3_frameB_foil.png',1520.9370485030033,45628.1114550901,45628,1520.9333333333334
112,1520.9459602499999,45628.3788075,45628,1520.9333333333334,1521.4459235,45643.377705,45643,1521.4333333333334,1522.9796012499999,45689.38803749999,45689,1522.9666666666667,1.854335450567305,3,1,7,1,1,3,b'HB_6_frameA.png',1524.8339367005672,45745.01810101701,45745,1524.8333333333333
113,1524.8517797499999,45745.5533925,45745,1524.8333333333333,1525.36841425,45761.0524275,45761,1525.3666666666666,1526.9021054999998,45807.06316499999,45807,1526.9,3.2807805463671684,1,0,2,2,1,3,b'NB_9_frameA_foil.png',1530.182886046367,45905.48658139101,45905,1530.1666666666667
114,1530.189167,45905.67501,45905,1530.1666666666667,1530.705824,45921.174719999995,45921,1530.7,1532.23945175,45967.1835525,45967,1532.2333333333333,1.600408955477178,2,0,7,1,2,3,b'SB_3_frameA_foil.png',1533.8398607054771,46015.195821164314,46015,1533.8333333333333
115,1533.85313475,46015.5940425,46015,1533.8333333333333,1534.38637225,46031.5911675,46031,1534.3666666666666,1535.9198055,46077.594164999995,46077,1535.9,1.5396799053996801,1,0,7,1,2,3,b'NB_6_frameB_foil.png',1537.4594854053996,46123.784562161985,46123,1537.4333333333334
116,1537.4771812499998,46124.315437499994,46124,1537.4666666666667,1537.9939587499998,46139.81876249999,46139,1537.9666666666667,1539.5273889999999,46185.82167,46185,1539.5,1.5402415764983743,2,0,7,1,2,3,b'SB_6_frameB_foil.png',1541.0676305764982,46232.02891729495,46232,1541.0666666666666
117,1541.07266525,46232.1799575,46232,1541.0666666666666,1541.58930625,46247.6791875,46247,1541.5666666666666,1543.1228035,46293.684105,46293,1543.1,2.238544805906713,3,0,7,1,2,3,b'HB_7_frameA_foil.png',1545.3613483059066,46360.8404491772,46360,1545.3333333333333
118,1545.36782425,46361.0347275,46361,1545.3666666666666,1545.8844937499998,46376.534812499995,46376,1545.8666666666666,1547.41809425,46422.5428275,46422,1547.4,2.1524058745708317,2,1,7,1,1,3,b'SB_1_frameB.png',1549.5705001245708,46487.115003737126,46487,1549.5666666666666
119,1549.5751807499998,46487.2554225,46487,1549.5666666666666,1550.141815,46504.25445,46504,1550.1333333333334,1551.67526075,46550.2578225,46550,1551.6666666666667,2.24373712670058,1,0,7,1,2,3,b'NB_13_frameA_foil.png',1553.9189978767006,46617.56993630102,46617,1553.9
120,1553.9204687499998,46617.6140625,46617,1553.9,1554.3871347499999,46631.6140425,46631,1554.3666666666666,1555.920607,46677.61821,46677,1555.9,2.9250460744369775,2,1,3,2,2,2,b'SB_5_frameB.png',1558.845653074437,46765.36959223311,46765,1558.8333333333333
121,1558.8621365,46765.864095,46765,1558.8333333333333,1559.3786592499998,46781.359777499994,46781,1559.3666666666666,1560.912149,46827.36447,46827,1560.9,1.0329886188264936,1,1,7,1,1,3,b'NB_24_frameA.png',1561.9451376188265,46858.354128564795,46858,1561.9333333333334
122,1561.980705,46859.421149999995,46859,1561.9666666666667,1562.4806697499998,46874.4200925,46874,1562.4666666666667,1564.0143214999998,46920.429645,46920,1564.0,1.979973013047129,1,0,7,1,2,3,b'NB_14_frameB_foil.png',1565.994294513047,46979.82883539141,46979,1565.9666666666667
123,1566.00681225,46980.204367499995,46980,1566.0,1566.52346375,46995.7039125,46995,1566.5,1568.0571665,47041.714995,47041,1568.0333333333333,-1.3885784624144435,1,1,7,1,1,3,b'NB_22_frameA.png',1566.6685880375856,47000.05764112757,47000,1566.6666666666667
124,1566.6833789999998,47000.50137,47000,1566.6666666666667,1567.23321175,47016.9963525,47016,1567.2,1568.7667952499999,47063.00385749999,47063,1568.7666666666667,1.1036716266535223,3,0,7,1,2,3,b'HB_5_frameB_foil.png',1569.8704668766534,47096.1140062996,47096,1569.8666666666666
125,1569.88574075,47096.5722225,47096,1569.8666666666666,1570.36899525,47111.0698575,47111,1570.3666666666666,1571.9024614999998,47157.07384499999,47157,1571.9,1.4019779211375862,2,1,7,1,1,3,b'SB_4_frameB.png',1573.3044394211374,47199.13318263412,47199,1573.3
126,1573.3236487499998,47199.709462499995,47199,1573.3,1573.87362425,47216.208727499994,47216,1573.8666666666666,1575.40725125,47262.2175375,47262,1575.4,2.158818998839706,2,1,7,1,1,3,b'SB_1_frameA.png',1577.5660702488397,47326.98210746519,47326,1577.5333333333333
127,1577.5747972499998,47327.243917499996,47327,1577.5666666666666,1578.05809075,47341.7427225,47341,1578.0333333333333,1579.5918267499999,47387.7548025,47387,1579.5666666666666,1.956581688951701,2,0,7,1,2,3,b'SB_2_frameB_foil.png',1581.5484084389516,47446.45225316855,47446,1581.5333333333333
128,1581.5585967499999,47446.757902499994,47446,1581.5333333333333,1582.09202525,47462.7607575,47462,1582.0666666666666,1583.6254657499999,47508.7639725,47508,1583.6,1.820703177480027,2,1,2,2,2,3,b'SB_3_frameA.png',1585.44616892748,47563.3850678244,47563,1585.4333333333334
129,1585.4496434999999,47563.489304999996,47563,1585.4333333333334,1585.98302,47579.4906,47579,1585.9666666666667,1587.516603,47625.49809,47625,1587.5,3.1104276801925153,1,1,6,1,1,2,b'NB_30_frameA.png',1590.6270306801925,47718.81092040578,47718,1590.6
130,1590.6372522499998,47719.1175675,47719,1590.6333333333334,1591.12061,47733.6183,47733,1591.1,1592.65416525,47779.6249575,47779,1592.6333333333334,1.4953517119865865,3,1,7,1,1,3,b'HB_1_frameB.png',1594.1495169619866,47824.485508859594,47824,1594.1333333333334
131,1594.15954625,47824.7863875,47824,1594.1333333333334,1594.642652,47839.27956,47839,1594.6333333333334,1596.176326,47885.28978,47885,1596.1666666666667,2.11309152119793,2,0,2,2,1,3,b'SB_9_frameA_foil.png',1598.289417521198,47948.68252563594,47948,1598.2666666666667
132,1598.29773075,47948.9319225,47948,1598.2666666666667,1598.81435475,47964.430642499996,47964,1598.8,1600.34798325,48010.439497499996,48010,1600.3333333333333,1.9767140683252364,2,0,7,1,2,3,b'SB_3_frameB_foil.png',1602.3246973183252,48069.74091954975,48069,1602.3
133,1602.335237,48070.05711,48070,1602.3333333333333,1602.868663,48086.05989,48086,1602.8666666666666,1604.402148,48132.064439999995,48132,1604.4,1.4332995244767517,3,0,7,1,2,3,b'HB_5_frameA_foil.png',1605.8354475244766,48175.0634257343,48175,1605.8333333333333
134,1605.8486397499998,48175.4591925,48175,1605.8333333333333,1606.331989,48189.959670000004,48189,1606.3,1607.865497,48235.96491,48235,1607.8333333333333,2.4839539385866374,1,1,4,2,2,1,b'NB_7_frameB.png',1610.3494509385866,48310.4835281576,48310,1610.3333333333333
135,1610.3591294999999,48310.773884999995,48310,1610.3333333333333,1610.9090239999998,48327.27071999999,48327,1610.9,1612.4425677499999,48373.277032499995,48373,1612.4333333333334,1.8018037171568722,2,0,7,1,2,3,b'SB_6_frameA_foil.png',1614.2443714671567,48427.3311440147,48427,1614.2333333333333
136,1614.2557112499999,48427.671337499996,48427,1614.2333333333333,1614.7888779999998,48443.666339999996,48443,1614.7666666666667,1616.3223845,48489.671535,48489,1616.3,0.7054417326580733,1,0,6,1,2,2,b'NB_17_frameA_foil.png',1617.027826232658,48510.83478697974,48510,1617.0
137,1617.04097125,48511.2291375,48511,1617.0333333333333,1617.52433475,48525.7300425,48525,1617.5,1619.0578025,48571.734075,48571,1619.0333333333333,2.349793610163033,3,1,3,2,2,2,b'HB_4_frameA.png',1621.407596110163,48642.22788330489,48642,1621.4
138,1621.41037825,48642.3113475,48642,1621.4,1621.893685,48656.81055,48656,1621.8666666666666,1623.4273105,48702.819315,48702,1623.4,2.785761625505984,3,1,2,2,2,3,b'HB_6_frameB.png',1626.213072125506,48786.39216376518,48786,1626.2
139,1626.2213124999998,48786.639375,48786,1626.2,1626.7379085,48802.137255,48802,1626.7333333333333,1628.271507,48848.145209999995,48848,1628.2666666666667,2.7549597492907196,1,0,6,1,2,2,b'NB_16_frameB_foil.png',1631.0264667492906,48930.79400247872,48930,1631.0
140,1631.041061,48931.23183,48931,1631.0333333333333,1631.5576764999998,48946.730294999994,48946,1631.5333333333333,1633.0911755,48992.735264999996,48992,1633.0666666666666,1.112388590350747,2,0,7,1,2,3,b'SB_1_frameA_foil.png',1634.2035640903507,49026.10692271052,49026,1634.2
141,1634.2056185,49026.168555,49026,1634.2,1634.7556674999998,49042.67002499999,49042,1634.7333333333333,1636.2893775,49088.681325,49088,1636.2666666666667,2.828996636439115,1,1,2,2,2,3,b'NB_25_frameB.png',1639.1183741364391,49173.55122409317,49173,1639.1
142,1639.1269882499998,49173.8096475,49173,1639.1,1639.61043625,49188.3130875,49188,1639.6,1641.1439985,49234.319955,49234,1641.1333333333334,1.407323216786608,3,0,7,1,2,3,b'HB_1_frameA_foil.png',1642.5513217167866,49276.5396515036,49276,1642.5333333333333
143,1642.56312725,49276.8938175,49276,1642.5333333333333,1643.0463344999998,49291.390035,49291,1643.0333333333333,1644.57983425,49337.3950275,49337,1644.5666666666666,1.3628925890661776,2,0,7,1,2,3,b'SB_2_frameB_foil.png',1645.9427268390662,49378.28180517199,49378,1645.9333333333334
144,1645.9497724999999,49378.493174999996,49378,1645.9333333333334,1646.43314575,49392.9943725,49392,1646.4,1647.96672,49439.001599999996,49439,1647.9666666666667,1.8187238092068583,3,0,7,1,2,3,b'HB_1_frameA_foil.png',1649.7854438092068,49493.5633142762,49493,1649.7666666666667
145,1649.7959795,49493.879385,49493,1649.7666666666667,1650.32936475,49509.8809425,49509,1650.3,1651.8629415,49555.888245,49555,1651.8333333333333,2.4256156410556287,2,1,2,2,2,3,b'SB_2_frameA.png',1654.2885571410557,49628.65671423167,49628,1654.2666666666667
146,1654.30131625,49629.0394875,49629,1654.3,1654.86792475,49646.0377425,49646,1654.8666666666666,1656.40149625,49692.0448875,49692,1656.4,2.1397210338618606,2,0,7,1,2,3,b'SB_7_frameB_foil.png',1658.541217283862,49756.236518515856,49756,1658.5333333333333
147,1658.55547875,49756.6643625,49756,1658.5333333333333,1659.0554625,49771.663875,49771,1659.0333333333333,1660.5888805,49817.666415,49817,1660.5666666666666,0.06503944750875235,1,1,6,1,1,2,b'NB_11_frameB.png',1660.6539199475087,49819.61759842526,49819,1660.6333333333334
148,1660.6662172499998,49819.986517499994,49819,1660.6333333333334,1661.1994045,49835.982135,49835,1661.1666666666667,1662.73292425,49881.9877275,49881,1662.7,1.9754626331850886,2,1,2,2,2,3,b'SB_5_frameA.png',1664.708386883185,49941.251606495556,49941,1664.7
149,1664.7232565,49941.697694999995,49941,1664.7,1665.2231857499999,49956.69557249999,49956,1665.2,1666.756796,50002.703879999994,50002,1666.7333333333333,2.3943331730552018,2,0,7,1,2,3,b'SB_4_frameA_foil.png',1669.151129173055,50074.53387519165,50074,1669.1333333333334
150,1669.1656094999998,50074.968284999995,50074,1669.1333333333334,1669.665605,50089.96815,50089,1669.6333333333334,1671.199203,50135.97609,50135,1671.1666666666667,2.41645056870766,1,1,4,2,2,1,b'NB_10_frameA.png',1673.6156535687076,50208.469607061226,50208,1673.6
151,1673.61771875,50208.5315625,50208,1673.6,1674.1010509999999,50223.03152999999,50223,1674.1,1675.63477475,50269.043242499996,50269,1675.6333333333334,1.9591108884196728,1,1,6,1,1,2,b'NB_26_frameA.png',1677.5938856384196,50327.81656915259,50327,1677.5666666666666
152,1677.6037247499999,50328.1117425,50328,1677.6,1678.1703049999999,50345.10915,50345,1678.1666666666667,1679.7039452499998,50391.118357499996,50391,1679.7,0.9489858739543706,1,1,6,1,1,2,b'NB_3_frameB.png',1680.6529311239542,50419.58793371863,50419,1680.6333333333334
153,1680.66676975,50420.003092499996,50420,1680.6666666666667,1681.2001424999999,50436.004275,50436,1681.2,1682.73372225,50482.0116675,50482,1682.7333333333333,1.4888504422269762,1,1,6,1,1,2,b'NB_17_frameB.png',1684.222572692227,50526.67718076681,50526,1684.2
154,1684.2308592499999,50526.92577749999,50526,1684.2,1684.7641454999998,50542.92436499999,50542,1684.7333333333333,1686.2977529999998,50588.93259,50588,1686.2666666666667,3.8644819310866296,1,1,7,1,1,3,b'NB_18_frameA.png',1690.1622349310865,50704.867047932596,50704,1690.1333333333334
155,1690.17367225,50705.2101675,50705,1690.1666666666667,1690.64030725,50719.2092175,50719,1690.6333333333334,1692.1740105,50765.220315,50765,1692.1666666666667,1.3766532153822482,1,1,2,2,2,3,b'NB_2_frameA.png',1693.5506637153821,50806.519911461466,50806,1693.5333333333333
156,1693.5679679999998,50807.039039999996,50807,1693.5666666666666,1694.0511795,50821.535385,50821,1694.0333333333333,1695.58488425,50867.5465275,50867,1695.5666666666666,1.9646654587704688,2,0,6,1,2,2,b'SB_1_frameA_foil.png',1697.5495497087704,50926.48649126312,50926,1697.5333333333333
157,1697.5537155,50926.611465,50926,1697.5333333333333,1698.0203817499998,50940.611452499994,50940,1698.0,1699.55387525,50986.6162575,50986,1699.5333333333333,1.7828848068602383,2,0,6,1,2,2,b'SB_6_frameA_foil.png',1701.3367600568602,51040.102801705805,51040,1701.3333333333333
158,1701.338694,51040.160820000005,51040,1701.3333333333333,1701.87201625,51056.1604875,51056,1701.8666666666666,1703.40575375,51102.1726125,51102,1703.4,0.7322772745974362,1,0,7,1,2,3,b'NB_30_frameB_foil.png',1704.1380310245975,51124.14093073792,51124,1704.1333333333334
159,1704.14450275,51124.335082499994,51124,1704.1333333333334,1704.644558,51139.33674,51139,1704.6333333333334,1706.1781314999998,51185.34394499999,51185,1706.1666666666667,0.8724430857691914,3,1,2,2,2,3,b'HB_9_frameA.png',1707.050574585769,51211.51723757307,51211,1707.0333333333333
160,1707.05649725,51211.6949175,51211,1707.0333333333333,1707.606483,51228.19449,51228,1707.6,1709.140021,51274.20063,51274,1709.1333333333334,2.3357499800622463,1,1,6,1,1,2,b'NB_16_frameA.png',1711.4757709800622,51344.27312940187,51344,1711.4666666666667
161,1711.4780895,51344.342684999996,51344,1711.4666666666667,1711.99474625,51359.8423875,51359,1711.9666666666667,1713.5282935,51405.848805,51405,1713.5,1.5975064281374216,2,0,6,1,2,2,b'SB_3_frameB_foil.png',1715.1257999281374,51453.773997844124,51453,1715.1
162,1715.12963625,51453.8890875,51453,1715.1,1715.64642375,51469.3927125,51469,1715.6333333333334,1717.179827,51515.39481,51515,1717.1666666666667,1.5296823382377625,3,1,7,1,1,3,b'HB_2_frameA.png',1718.7095093382377,51561.28528014713,51561,1718.7
163,1718.7174137499999,51561.522412499995,51561,1718.7,1719.2340327499999,51577.0209825,51577,1719.2333333333333,1720.76772775,51623.0318325,51623,1720.7666666666667,1.4950612329412252,2,1,5,1,1,1,b'SB_7_frameB.png',1722.2627889829412,51667.883669488234,51667,1722.2333333333333
164,1722.270683,51668.12049,51668,1722.2666666666667,1722.83742425,51685.1227275,51685,1722.8333333333333,1724.37097725,51731.129317499996,51731,1724.3666666666666,2.867973701329902,1,0,7,1,2,3,b'NB_24_frameB_foil.png',1727.2389509513298,51817.16852853989,51817,1727.2333333333333
165,1727.2495749999998,51817.48724999999,51817,1727.2333333333333,1727.7495514999998,51832.48654499999,51832,1727.7333333333333,1729.2832502499998,51878.4975075,51878,1729.2666666666667,1.5290250009857118,1,0,6,1,2,2,b'NB_29_frameA_foil.png',1730.8122752509855,51924.36825752957,51924,1730.8
166,1730.8161949999999,51924.48585,51924,1730.8,1731.3494695,51940.484085,51940,1731.3333333333333,1732.8830632499999,51986.4918975,51986,1732.8666666666666,1.113219767343253,3,1,7,1,1,3,b'HB_1_frameB.png',1733.996283017343,52019.888490520294,52019,1733.9666666666667
167,1734.00424275,52020.1272825,52020,1734.0,1734.4875877499999,52034.62763249999,52034,1734.4666666666667,1736.0210574999999,52080.631725,52080,1736.0,1.7060073197353631,2,1,6,1,1,2,b'SB_6_frameB.png',1737.7270648197352,52131.81194459206,52131,1737.7
168,1737.737367,52132.121009999995,52132,1737.7333333333333,1738.2373807499998,52147.12142249999,52147,1738.2333333333333,1739.7708245,52193.124735,52193,1739.7666666666667,1.3183105275966227,1,0,6,1,2,2,b'NB_5_frameA_foil.png',1741.0891350275965,52232.674050827896,52232,1741.0666666666666
169,1741.0916155,52232.748465,52232,1741.0666666666666,1741.6747142499999,52250.2414275,52250,1741.6666666666667,1743.208212,52296.24636,52296,1743.2,1.0045256374869496,2,0,6,1,2,2,b'SB_5_frameA_foil.png',1744.212737637487,52326.382129124606,52326,1744.2
170,1744.2191839999998,52326.57551999999,52326,1744.2,1744.7359307499999,52342.07792249999,52342,1744.7333333333333,1746.30547575,52389.1642725,52389,1746.3,1.829402164556086,3,1,7,1,1,3,b'HB_4_frameB.png',1748.134877914556,52444.04633743668,52444,1748.1333333333334
171,1748.1508305,52444.524915,52444,1748.1333333333334,1748.6340845,52459.022535,52459,1748.6333333333334,1750.1675504999998,52505.026515,52505,1750.1666666666667,2.63116363203153,3,1,7,1,1,3,b'HB_3_frameB.png',1752.7987141320314,52583.961423960944,52583,1752.7666666666667
172,1752.806285,52584.18855,52584,1752.8,1753.35628925,52600.688677499995,52600,1753.3333333333333,1754.8899737499999,52646.699212499996,52646,1754.8666666666666,1.6045672143809497,2,1,7,1,1,3,b'SB_8_frameB.png',1756.4945409643808,52694.836228931425,52694,1756.4666666666667
173,1756.5095362499999,52695.2860875,52695,1756.5,1757.00949475,52710.2848425,52710,1757.0,1758.5431972499998,52756.29591749999,52756,1758.5333333333333,2.9159042781684548,1,1,4,2,2,1,b'NB_21_frameB.png',1761.4591015281683,52843.773045845046,52843,1761.4333333333334
174,1761.4661287499998,52843.9838625,52843,1761.4333333333334,1762.04937675,52861.4813025,52861,1762.0333333333333,1763.5829764999999,52907.48929499999,52907,1763.5666666666666,1.5748298182152212,3,0,7,1,2,3,b'HB_2_frameA_foil.png',1765.157806318215,52954.73418954645,52954,1765.1333333333334
175,1765.17197825,52955.1593475,52955,1765.1666666666667,1765.65519675,52969.6559025,52969,1765.6333333333334,1767.1887327499999,53015.661982499994,53015,1767.1666666666667,1.7912743212655187,3,1,7,1,1,3,b'HB_5_frameA.png',1768.9800070712654,53069.40021213796,53069,1768.9666666666667
176,1768.98653675,53069.5961025,53069,1768.9666666666667,1769.50308675,53085.0926025,53085,1769.5,1771.0368134999999,53131.104405,53131,1771.0333333333333,3.654709678841755,1,1,7,1,1,3,b'NB_8_frameA.png',1774.6915231788416,53240.74569536525,53240,1774.6666666666667
177,1774.71172925,53241.3518775,53241,1774.7,1775.235256,53257.05768,53257,1775.2333333333333,1776.76563275,53302.968982499995,53302,1776.7333333333333,2.4184434313792735,2,1,3,2,2,2,b'SB_30_frameA.png',1779.1840761813792,53375.52228544137,53375,1779.1666666666667
178,1779.2027945,53376.083835,53376,1779.2,1779.75624075,53392.6872225,53392,1779.7333333333333,1781.28325425,53438.4976275,53438,1781.2666666666667,1.6612726720049977,2,0,5,1,2,1,b'SB_30_frameB_foil.png',1782.944526922005,53488.33580766015,53488,1782.9333333333334
179,1782.95617425,53488.6852275,53488,1782.9333333333334,1783.490401,53504.71203,53504,1783.4666666666667,1785.0021144999998,53550.063435,53550,1785.0,2.1014368918258697,3,1,6,1,1,2,b'HB_30_frameB.png',1787.1035513918257,53613.10654175477,53613,1787.1
180,1787.1198275,53613.594825,53613,1787.1,1787.6347005,53629.041015,53629,1787.6333333333334,1789.163532,53674.905960000004,53674,1789.1333333333334,1.1059868682641536,3,0,7,1,2,3,b'HB_30_frameA_foil.png',1790.2695188682642,53708.08556604793,53708,1790.2666666666667
