trial_num,fixcross_time,fixation_HZ,fixation_bin,fixation_regarded,start_time,Fstart_HZ,Fstart_bin,Fstart_regarded,stop_time,Fstop_HZ,Fstop_bin,Fstop_regarded,RT,boundary_type,stimuli_type,resp_value,old_new,accuracy,confidence,frameName,response_time,response_HZ,response_bin,response_regarded
1,1153.956864,34618.70592,34618,1153.9333333333334,1154.52416,34635.724799999996,34635,1154.5,1156.06016,34681.8048,34681,1156.0333333333333,1.8368368250867206,1,0,7,1,2,3,b'NB_14_frameB_foil.png',1157.8969968250867,34736.9099047526,34736,1157.8666666666666
2,1157.907456,34737.223679999996,34737,1157.9,1158.44096,34753.2288,34753,1158.4333333333334,1159.974912,34799.247359999994,34799,1159.9666666666667,0.0,1,1,1,0,1,0,b'NB_10_frameA.png',1159.974912,34799.247359999994,34799,1159.9666666666667
3,1160.2022399999998,34806.0672,34806,1160.2,1160.6855679999999,34820.567039999994,34820,1160.6666666666667,1162.218496,34866.554879999996,34866,1162.2,2.1612714560781114,3,1,3,2,2,2,b'HB_3_frameA.png',1164.379767456078,34931.39302368234,34931,1164.3666666666666
4,1164.402688,34932.08064,34932,1164.4,1164.868608,34946.05824,34946,1164.8666666666666,1166.40256,34992.0768,34992,1166.4,1.0198994170577862,2,1,3,2,2,2,b'SB_9_frameB.png',1167.4224594170578,35022.67378251173,35022,1167.4
5,1167.4296319999999,35022.88896,35022,1167.4,1167.9631359999998,35038.89408,35038,1167.9333333333334,1169.4970879999998,35084.912639999995,35084,1169.4666666666667,1.962804102858172,2,0,6,1,2,2,b'SB_4_frameA_foil.png',1171.459892102858,35143.79676308574,35143,1171.4333333333334
6,1171.47136,35144.1408,35144,1171.4666666666667,1171.954688,35158.64064,35158,1171.9333333333334,1173.487616,35204.62848,35204,1173.4666666666667,0.9035690847233582,1,0,7,1,2,3,b'NB_9_frameA_foil.png',1174.3911850847232,35231.7355525417,35231,1174.3666666666666
7,1174.4081919999999,35232.24576,35232,1174.4,1174.907904,35247.23712,35247,1174.9,1176.441856,35293.255679999995,35293,1176.4333333333334,1.297475368544383,1,1,2,2,2,3,b'NB_25_frameB.png',1177.7393313685443,35332.179941056325,35332,1177.7333333333333
8,1177.7556479999998,35332.66944,35332,1177.7333333333333,1178.30656,35349.1968,35349,1178.3,1179.8394879999998,35395.18463999999,35395,1179.8333333333333,1.5917930594991958,3,1,3,2,2,2,b'HB_6_frameA.png',1181.431281059499,35442.93843178497,35442,1181.4
9,1181.441024,35443.23072,35443,1181.4333333333334,1181.990912,35459.72736,35459,1181.9666666666667,1183.524864,35505.74592,35505,1183.5,1.7036549230058426,2,0,7,1,2,3,b'SB_1_frameA_foil.png',1185.2285189230058,35556.855567690174,35556,1185.2
10,1185.243136,35557.29408,35557,1185.2333333333333,1185.793024,35573.790720000005,35573,1185.7666666666667,1187.326976,35619.80928,35619,1187.3,1.2916358683153248,3,0,6,1,2,2,b'HB_9_frameA_foil.png',1188.6186118683154,35658.55835604946,35658,1188.6
11,1188.6366719999999,35659.100159999995,35659,1188.6333333333334,1189.136384,35674.091519999994,35674,1189.1333333333334,1190.670336,35720.11008,35720,1190.6666666666667,1.228252963255727,2,1,2,2,2,3,b'SB_5_frameA.png',1191.8985889632556,35756.95766889767,35756,1191.8666666666666
12,1191.901184,35757.035520000005,35757,1191.9,1192.418304,35772.54912,35772,1192.4,1193.951232,35818.53696,35818,1193.9333333333334,1.0365852606507815,3,1,3,2,2,2,b'HB_1_frameB.png',1194.9878172606507,35849.63451781952,35849,1194.9666666666667
13,1194.991616,35849.74848,35849,1194.9666666666667,1195.541504,35866.24512,35866,1195.5333333333333,1197.074432,35912.232959999994,35912,1197.0666666666666,1.2334799066745745,3,0,6,1,2,2,b'HB_4_frameA_foil.png',1198.3079119066745,35949.23735720023,35949,1198.3
14,1198.32064,35949.6192,35949,1198.3,1198.820352,35964.61056,35964,1198.8,1200.35328,36010.5984,36010,1200.3333333333333,1.7656904610657875,3,0,6,1,2,2,b'HB_3_frameA_foil.png',1202.1189704610658,36063.569113831974,36063,1202.1
15,1202.1248,36063.744,36063,1202.1,1202.6746879999998,36080.240639999996,36080,1202.6666666666667,1204.207616,36126.22848,36126,1204.2,1.4544910551487646,3,0,6,1,2,2,b'HB_2_frameB_foil.png',1205.6621070551487,36169.86321165446,36169,1205.6333333333334
16,1205.673984,36170.21952,36170,1205.6666666666667,1206.207488,36186.22464,36186,1206.2,1207.74144,36232.2432,36232,1207.7333333333333,2.2684963816957406,3,1,3,2,2,2,b'HB_1_frameA.png',1210.0099363816958,36300.29809145087,36300,1210.0
17,1210.01984,36300.595199999996,36300,1210.0,1210.503168,36315.09504,36315,1210.5,1212.03712,36361.1136,36361,1212.0333333333333,1.1263234568132248,1,0,7,1,2,3,b'NB_25_frameA_foil.png',1213.1634434568132,36394.9033037044,36394,1213.1333333333334
18,1213.1768319999999,36395.304959999994,36395,1213.1666666666667,1213.66016,36409.8048,36409,1213.6333333333334,1215.193088,36455.79264,36455,1215.1666666666667,1.3670858746486374,2,1,2,2,2,3,b'SB_2_frameB.png',1216.5601738746486,36496.80521623946,36496,1216.5333333333333
19,1216.57344,36497.203199999996,36497,1216.5666666666666,1217.0741759999999,36512.22528,36512,1217.0666666666666,1218.607104,36558.21312,36558,1218.6,1.0974424007993093,3,0,6,1,2,2,b'HB_5_frameA_foil.png',1219.7045464007992,36591.136392023975,36591,1219.7
20,1219.72224,36591.6672,36591,1219.7,1220.2055679999999,36606.16703999999,36606,1220.2,1221.738496,36652.15488,36652,1221.7333333333333,0.3179050970402386,3,0,5,1,2,1,b'HB_1_frameA_foil.png',1222.0564010970402,36661.6920329112,36661,1222.0333333333333
21,1222.066176,36661.98528,36661,1222.0333333333333,1222.59968,36677.9904,36677,1222.5666666666666,1224.132608,36723.97824,36723,1224.1,1.5278814593018524,3,0,5,1,2,1,b'HB_4_frameB_foil.png',1225.6604894593017,36769.814683779055,36769,1225.6333333333334
22,1225.6727039999998,36770.181119999994,36770,1225.6666666666667,1226.205184,36786.15552,36786,1226.2,1227.739136,36832.17408,36832,1227.7333333333333,1.0290053370906662,3,1,4,2,2,1,b'HB_1_frameB.png',1228.7681413370906,36863.044240112715,36863,1228.7666666666667
23,1228.771328,36863.13984,36863,1228.7666666666667,1229.304832,36879.14496,36879,1229.3,1230.838784,36925.16352,36925,1230.8333333333333,1.5312554882325458,1,0,7,1,2,3,b'NB_29_frameA_foil.png',1232.3700394882326,36971.10118464698,36971,1232.3666666666666
24,1232.371712,36971.151359999996,36971,1232.3666666666666,1232.9216,36987.647999999994,36987,1232.9,1234.46784,37034.0352,37034,1234.4666666666667,1.4127168119418911,1,0,7,1,2,3,b'NB_11_frameA_foil.png',1235.880556811942,37076.41670435826,37076,1235.8666666666666
25,1235.8963199999998,37076.889599999995,37076,1235.8666666666666,1236.412416,37092.37248,37092,1236.4,1237.946368,37138.391039999995,37138,1237.9333333333334,1.8550724999336126,1,1,2,2,2,3,b'NB_23_frameB.png',1239.8014404999335,37194.043214998004,37194,1239.8
26,1239.811072,37194.33216,37194,1239.8,1240.343552,37210.306560000005,37210,1240.3333333333333,1241.877504,37256.32512,37256,1241.8666666666666,0.5791911108078693,1,0,7,1,2,3,b'NB_18_frameB_foil.png',1242.456695110808,37273.70085332424,37273,1242.4333333333334
27,1242.473472,37274.204159999994,37274,1242.4666666666667,1242.940416,37288.212479999995,37288,1242.9333333333334,1244.474368,37334.23104,37334,1244.4666666666667,1.0056161875729686,1,1,2,2,2,3,b'NB_28_frameA.png',1245.4799841875729,37364.39952562719,37364,1245.4666666666667
28,1245.485056,37364.55168,37364,1245.4666666666667,1246.034944,37381.04832,37381,1246.0333333333333,1247.568896,37427.06688,37427,1247.5666666666666,2.1975280923147693,1,1,2,2,2,3,b'NB_14_frameA.png',1249.7664240923148,37492.99272276944,37492,1249.7333333333333
29,1249.775616,37493.26848,37493,1249.7666666666667,1250.341888,37510.25664,37510,1250.3333333333333,1251.87584,37556.2752,37556,1251.8666666666666,1.6921238706202075,3,0,5,1,2,1,b'HB_7_frameA_foil.png',1253.5679638706201,37607.0389161186,37607,1253.5666666666666
30,1253.5767039999998,37607.30112,37607,1253.5666666666666,1254.1429759999999,37624.28928,37624,1254.1333333333334,1255.675904,37670.27712,37670,1255.6666666666667,1.1120935443798317,2,1,3,2,2,2,b'SB_4_frameB.png',1256.7879975443798,37703.639926331394,37703,1256.7666666666667
31,1256.802304,37704.06912,37704,1256.8,1257.335808,37720.07424,37720,1257.3333333333333,1258.86976,37766.0928,37766,1258.8666666666666,1.530811769288448,3,0,5,1,2,1,b'HB_1_frameA_foil.png',1260.4005717692885,37812.017153078654,37812,1260.4
32,1260.4170239999999,37812.51072,37812,1260.4,1260.949504,37828.48512,37828,1260.9333333333334,1262.483456,37874.503679999994,37874,1262.4666666666667,2.117190661893119,3,0,5,1,2,1,b'HB_8_frameA_foil.png',1264.600646661893,37938.01939985679,37938,1264.6
33,1264.606208,37938.186239999995,37938,1264.6,1265.072128,37952.16384,37952,1265.0666666666666,1266.60608,37998.1824,37998,1266.6,1.6007374992420864,1,0,7,1,2,3,b'NB_22_frameB_foil.png',1268.206817499242,38046.204524977264,38046,1268.2
34,1268.211712,38046.35136,38046,1268.2,1268.7616,38062.848,38062,1268.7333333333333,1270.295552,38108.86656,38108,1270.2666666666667,0.6839774474735805,3,1,3,2,2,2,b'HB_6_frameB.png',1270.9795294474736,38129.385883424206,38129,1270.9666666666667
35,1270.987776,38129.633279999995,38129,1270.9666666666667,1271.471104,38144.13312,38144,1271.4666666666667,1273.005056,38190.151679999995,38190,1273.0,1.4733800760859594,1,1,2,2,2,3,b'NB_13_frameB.png',1274.478436076086,38234.35308228258,38234,1274.4666666666667
36,1274.4878079999999,38234.63424,38234,1274.4666666666667,1274.971136,38249.134079999996,38249,1274.9666666666667,1276.505088,38295.15264,38295,1276.5,1.6606392142368804,3,0,5,1,2,1,b'HB_5_frameB_foil.png',1278.1657272142368,38344.9718164271,38344,1278.1333333333334
37,1278.1803519999999,38345.41056,38345,1278.1666666666667,1278.7302399999999,38361.907199999994,38361,1278.7,1280.263168,38407.895039999996,38407,1280.2333333333333,2.5610073009047483,2,0,7,1,2,3,b'SB_8_frameB_foil.png',1282.8241753009047,38484.72525902714,38484,1282.8
38,1282.827264,38484.81792,38484,1282.8,1283.310592,38499.31776,38499,1283.3,1284.84352,38545.3056,38545,1284.8333333333333,1.1392777231355922,2,0,6,1,2,2,b'SB_2_frameB_foil.png',1285.9827977231355,38579.48393169406,38579,1285.9666666666667
39,1286.00064,38580.0192,38580,1286.0,1286.534144,38596.02432,38596,1286.5333333333333,1288.067072,38642.01216,38642,1288.0666666666666,0.3669570271460998,2,0,6,1,2,2,b'SB_1_frameA_foil.png',1288.4340290271462,38653.020870814384,38653,1288.4333333333334
40,1288.4510719999998,38653.532159999995,38653,1288.4333333333334,1288.951808,38668.55424,38668,1288.9333333333334,1290.4847359999999,38714.54208,38714,1290.4666666666667,0.9708902484865121,2,0,7,1,2,3,b'SB_7_frameA_foil.png',1291.4556262484864,38743.66878745459,38743,1291.4333333333334
41,1291.464704,38743.94112,38743,1291.4333333333334,1291.948032,38758.44096,38758,1291.9333333333334,1293.4809599999999,38804.428799999994,38804,1293.4666666666667,1.7630596184847036,3,0,6,1,2,2,b'HB_4_frameA_foil.png',1295.2440196184846,38857.32058855454,38857,1295.2333333333333
42,1295.254528,38857.635839999995,38857,1295.2333333333333,1295.721472,38871.644159999996,38871,1295.7,1297.2544,38917.632,38917,1297.2333333333333,0.9122938455302574,3,0,6,1,2,2,b'HB_6_frameB_foil.png',1298.1666938455303,38945.00081536591,38945,1298.1666666666667
43,1298.178048,38945.34144,38945,1298.1666666666667,1298.74432,38962.3296,38962,1298.7333333333333,1300.278272,39008.34816,39008,1300.2666666666667,1.3066894406354095,1,1,2,2,2,3,b'NB_12_frameA.png',1301.5849614406354,39047.54884321906,39047,1301.5666666666666
44,1301.59616,39047.8848,39047,1301.5666666666666,1302.1460479999998,39064.38144,39064,1302.1333333333334,1303.678976,39110.36928,39110,1303.6666666666667,1.91931426747783,3,0,6,1,2,2,b'HB_1_frameA_foil.png',1305.5982902674778,39167.948708024334,39167,1305.5666666666666
45,1305.601024,39168.03072,39168,1305.6,1306.0843519999999,39182.53056,39182,1306.0666666666666,1307.6183039999999,39228.549119999996,39228,1307.6,2.21794895466428,1,1,2,2,2,3,b'NB_16_frameA.png',1309.8362529546641,39295.08758863992,39295,1309.8333333333333
46,1309.853696,39295.61088,39295,1309.8333333333333,1310.3872,39311.615999999995,39311,1310.3666666666666,1311.920128,39357.603839999996,39357,1311.9,2.622741730466032,1,1,2,2,2,3,b'NB_24_frameA.png',1314.542869730466,39436.28609191398,39436,1314.5333333333333
47,1314.5559039999998,39436.67711999999,39436,1314.5333333333333,1315.1232,39453.695999999996,39453,1315.1,1316.6561279999999,39499.68384,39499,1316.6333333333334,0.5416747800409212,1,0,7,1,2,3,b'NB_20_frameB_foil.png',1317.1978027800408,39515.934083401226,39515,1317.1666666666667
48,1317.199872,39515.996159999995,39515,1317.1666666666667,1317.7006079999999,39531.01824,39531,1317.7,1319.233536,39577.00608,39577,1319.2333333333333,1.4657767592236723,1,0,7,1,2,3,b'NB_8_frameB_foil.png',1320.6993127592236,39620.979382776706,39620,1320.6666666666667
49,1320.71424,39621.4272,39621,1320.7,1321.2139519999998,39636.41856,39636,1321.2,1322.7479039999998,39682.437119999995,39682,1322.7333333333333,1.0291372284475528,2,0,7,1,2,3,b'SB_2_frameA_foil.png',1323.7770412284474,39713.31123685342,39713,1323.7666666666667
50,1323.794432,39713.83296,39713,1323.7666666666667,1324.276736,39728.30208,39728,1324.2666666666667,1325.810688,39774.32064,39774,1325.8,2.41276666178328,3,1,4,2,2,1,b'HB_2_frameA.png',1328.2234546617833,39846.7036398535,39846,1328.2
51,1328.232448,39846.97344,39846,1328.2,1328.799744,39863.99232,39863,1328.7666666666667,1330.332672,39909.98016,39909,1330.3,1.5520446846860523,3,1,4,2,2,1,b'HB_2_frameA.png',1331.884716684686,39956.54150054058,39956,1331.8666666666666
52,1331.899392,39956.98176,39956,1331.8666666666666,1332.432896,39972.986880000004,39972,1332.4,1333.9658239999999,40018.97472,40018,1333.9333333333334,1.9105111634876266,3,0,5,1,2,1,b'HB_2_frameB_foil.png',1335.8763351634875,40076.290054904624,40076,1335.8666666666666
53,1335.8817279999998,40076.451839999994,40076,1335.8666666666666,1336.4152319999998,40092.456959999996,40092,1336.4,1337.9491839999998,40138.47551999999,40138,1337.9333333333334,0.5453036988017175,2,0,5,1,2,1,b'SB_2_frameB_foil.png',1338.4944876988015,40154.83463096405,40154,1338.4666666666667
54,1338.500096,40155.00288,40155,1338.5,1339.017216,40170.51648,40170,1339.0,1340.550144,40216.50432,40216,1340.5333333333333,1.3410374609154587,2,1,2,2,2,3,b'SB_4_frameB.png',1341.8911814609155,40256.73544382746,40256,1341.8666666666666
55,1341.901824,40257.05472,40257,1341.9,1342.3851519999998,40271.55456,40271,1342.3666666666666,1343.9191039999998,40317.573119999994,40317,1343.9,1.8126209751949318,2,1,2,2,2,3,b'SB_9_frameA.png',1345.7317249751948,40371.951749255844,40371,1345.7
56,1345.7346559999999,40372.039679999994,40372,1345.7333333333333,1346.217984,40386.53952,40386,1346.2,1347.751936,40432.558079999995,40432,1347.7333333333333,1.5489951584747814,3,1,4,2,2,1,b'HB_1_frameB.png',1349.3009311584747,40479.02793475424,40479,1349.3
57,1349.3084159999999,40479.252479999996,40479,1349.3,1349.8255359999998,40494.766079999994,40494,1349.8,1351.358464,40540.753919999996,40540,1351.3333333333333,0.8200986817628291,3,0,7,1,2,3,b'HB_3_frameB_foil.png',1352.1785626817627,40565.356880452884,40565,1352.1666666666667
58,1352.19712,40565.9136,40565,1352.1666666666667,1352.7296,40581.888,40581,1352.7,1354.263552,40627.906559999996,40627,1354.2333333333333,1.710563228321007,3,1,3,2,2,2,b'HB_2_frameB.png',1355.974115228321,40679.22345684963,40679,1355.9666666666667
59,1355.984896,40679.546879999994,40679,1355.9666666666667,1356.468224,40694.04672,40694,1356.4666666666667,1358.002176,40740.065279999995,40740,1358.0,2.099865869281757,1,0,7,1,2,3,b'NB_1_frameA_foil.png',1360.1020418692817,40803.06125607845,40803,1360.1
60,1360.10752,40803.2256,40803,1360.1,1360.6236159999999,40818.708479999994,40818,1360.6,1362.1575679999999,40864.72704,40864,1362.1333333333334,1.0030861233744872,2,1,2,2,2,3,b'SB_8_frameA.png',1363.1606541233743,40894.81962370123,40894,1363.1333333333334
61,1363.171328,40895.139839999996,40895,1363.1666666666667,1363.637248,40909.11744,40909,1363.6333333333334,1365.1712,40955.136,40955,1365.1666666666667,0.6720040384104777,2,1,4,2,2,1,b'SB_1_frameB.png',1365.8432040384105,40975.296121152314,40975,1365.8333333333333
62,1365.855232,40975.65695999999,40975,1365.8333333333333,1366.321152,40989.63456,40989,1366.3,1367.855104,41035.65312,41035,1367.8333333333333,0.9095973291932751,2,0,6,1,2,2,b'SB_1_frameA_foil.png',1368.7647013291933,41062.9410398758,41062,1368.7333333333333
63,1368.774656,41063.23968,41063,1368.7666666666667,1369.2579839999999,41077.739519999996,41077,1369.2333333333333,1370.790912,41123.72736,41123,1370.7666666666667,1.2492421142139847,3,1,3,2,2,2,b'HB_7_frameB.png',1372.040154114214,41161.20462342642,41161,1372.0333333333333
64,1372.055552,41161.66656,41161,1372.0333333333333,1372.556288,41176.68864,41176,1372.5333333333333,1374.0892159999999,41222.676479999995,41222,1374.0666666666666,1.3614091555616596,2,0,7,1,2,3,b'SB_7_frameB_foil.png',1375.4506251555615,41263.518754666846,41263,1375.4333333333334
65,1375.455232,41263.65696,41263,1375.4333333333334,1375.921152,41277.63456,41277,1375.9,1377.455104,41323.653119999995,41323,1377.4333333333334,1.3227830812672892,3,0,7,1,2,3,b'HB_7_frameB_foil.png',1378.7778870812672,41363.33661243801,41363,1378.7666666666667
66,1378.79552,41363.8656,41363,1378.7666666666667,1379.328,41379.84,41379,1379.3,1380.861952,41425.85856,41425,1380.8333333333333,1.673521247392273,3,1,2,2,2,3,b'HB_4_frameB.png',1382.5354732473922,41476.064197421765,41476,1382.5333333333333
67,1382.5382399999999,41476.14719999999,41476,1382.5333333333333,1383.038976,41491.16928,41491,1383.0333333333333,1384.571904,41537.157119999996,41537,1384.5666666666666,1.5820308625882262,1,1,3,2,2,2,b'NB_30_frameA.png',1386.1539348625881,41584.61804587764,41584,1386.1333333333334
68,1386.165248,41584.95744,41584,1386.1333333333334,1386.715136,41601.45408,41601,1386.7,1388.2480639999999,41647.44192,41647,1388.2333333333333,1.1674801044671312,2,0,6,1,2,2,b'SB_9_frameA_foil.png',1389.415544104467,41682.46632313401,41682,1389.4
69,1389.422592,41682.67776,41682,1389.4,1389.97248,41699.174399999996,41699,1389.9666666666667,1391.505408,41745.16224,41745,1391.5,0.3909514993124503,2,1,2,2,2,3,b'SB_2_frameA.png',1391.8963594993124,41756.890784979376,41756,1391.8666666666666
70,1391.9078399999999,41757.235199999996,41757,1391.9,1392.4413439999998,41773.24032,41773,1392.4333333333334,1393.974272,41819.22816,41819,1393.9666666666667,-0.3580177680357792,1,0,7,1,2,3,b'NB_28_frameB_foil.png',1393.6162542319641,41808.48762695892,41808,1393.6
71,1393.6271359999998,41808.81408,41808,1393.6,1394.0940799999998,41822.8224,41822,1394.0666666666666,1395.6280319999998,41868.840959999994,41868,1395.6,1.460572541493093,2,0,7,1,2,3,b'SB_1_frameB_foil.png',1397.088604541493,41912.65813624479,41912,1397.0666666666666
72,1397.0984959999998,41912.95488,41912,1397.0666666666666,1397.5818239999999,41927.454719999994,41927,1397.5666666666666,1399.114752,41973.442559999996,41973,1399.1,1.803052713598845,3,1,4,2,2,1,b'HB_3_frameA.png',1400.9178047135988,42027.53414140797,42027,1400.9
73,1400.928256,42027.84768,42027,1400.9,1401.444352,42043.33056,42043,1401.4333333333334,1402.978304,42089.34912,42089,1402.9666666666667,1.469391246950181,2,0,6,1,2,2,b'SB_5_frameB_foil.png',1404.4476952469502,42133.43085740851,42133,1404.4333333333334
74,1404.4610559999999,42133.831679999996,42133,1404.4333333333334,1404.993536,42149.806079999995,42149,1404.9666666666667,1406.527488,42195.82464,42195,1406.5,0.8319728835303977,1,1,2,2,2,3,b'NB_15_frameB.png',1407.3594608835303,42220.78382650591,42220,1407.3333333333333
75,1407.376384,42221.29152,42221,1407.3666666666666,1407.926272,42237.78816,42237,1407.9,1409.460224,42283.80672,42283,1409.4333333333334,1.0279544713112045,1,0,7,1,2,3,b'NB_16_frameB_foil.png',1410.4881784713111,42314.645354139335,42314,1410.4666666666667
76,1410.502656,42315.079679999995,42315,1410.5,1411.0361599999999,42331.0848,42331,1411.0333333333333,1412.5701119999999,42377.103359999994,42377,1412.5666666666666,0.4542550301666779,2,0,7,1,2,3,b'SB_5_frameB_foil.png',1413.0243670301666,42390.731010904994,42390,1413.0
77,1413.033984,42391.019519999994,42391,1413.0333333333333,1413.567488,42407.024639999996,42407,1413.5666666666666,1415.10144,42453.0432,42453,1415.1,1.1554876435079677,1,1,2,2,2,3,b'NB_1_frameB.png',1416.2569276435079,42487.70782930523,42487,1416.2333333333333
78,1416.260608,42487.81824,42487,1416.2333333333333,1416.7439359999998,42502.31808,42502,1416.7333333333333,1418.2778879999998,42548.336639999994,42548,1418.2666666666667,2.1061325561595368,1,1,2,2,2,3,b'NB_19_frameB.png',1420.3840205561594,42611.52061668478,42611,1420.3666666666666
79,1420.3904,42611.712,42611,1420.3666666666666,1420.857344,42625.72032,42625,1420.8333333333333,1422.3902719999999,42671.708159999995,42671,1422.3666666666666,2.584904380287753,1,0,7,1,2,3,b'NB_26_frameB_foil.png',1424.9751763802876,42749.25529140863,42749,1424.9666666666667
80,1424.985088,42749.552639999994,42749,1424.9666666666667,1425.5022079999999,42765.06624,42765,1425.5,1427.0361599999999,42811.0848,42811,1427.0333333333333,0.7610513252798228,3,1,2,2,2,3,b'HB_3_frameB.png',1427.7972113252797,42833.91633975839,42833,1427.7666666666667
81,1427.80416,42834.1248,42834,1427.8,1428.337664,42850.12992,42850,1428.3333333333333,1429.870592,42896.11776,42896,1429.8666666666666,1.6127387394553807,1,1,2,2,2,3,b'NB_29_frameB.png',1431.4833307394554,42944.49992218366,42944,1431.4666666666667
82,1431.4997759999999,42944.993279999995,42944,1431.4666666666667,1432.0332799999999,42960.9984,42960,1432.0,1433.5672319999999,43007.01695999999,43007,1433.5666666666666,2.1602280752972547,3,1,2,2,2,3,b'HB_1_frameB.png',1435.7274600752971,43071.823802258914,43071,1435.7
83,1435.73504,43072.0512,43072,1435.7333333333333,1436.2183679999998,43086.55103999999,43086,1436.2,1437.7523199999998,43132.569599999995,43132,1437.7333333333333,1.8929825378500027,1,1,2,2,2,3,b'NB_4_frameA.png',1439.6453025378498,43189.35907613549,43189,1439.6333333333334
84,1439.65184,43189.5552,43189,1439.6333333333334,1440.16896,43205.0688,43205,1440.1666666666667,1441.7018879999998,43251.056639999995,43251,1441.7,1.7625844414915264,3,1,2,2,2,3,b'HB_8_frameB.png',1443.4644724414914,43303.93417324474,43303,1443.4333333333334
85,1443.482624,43304.47872,43304,1443.4666666666667,1443.949568,43318.48704,43318,1443.9333333333334,1445.4824959999999,43364.474879999994,43364,1445.4666666666667,2.0865506519976407,1,1,2,2,2,3,b'NB_5_frameB.png',1447.5690466519975,43427.07139955992,43427,1447.5666666666666
86,1447.5857919999999,43427.57376,43427,1447.5666666666666,1448.1192959999998,43443.578879999994,43443,1448.1,1449.652224,43489.566719999995,43489,1449.6333333333334,1.292128349403356,2,1,3,2,2,2,b'SB_6_frameA.png',1450.9443523494033,43528.330570482096,43528,1450.9333333333334
87,1450.950656,43528.51968,43528,1450.9333333333334,1451.500544,43545.01632,43545,1451.5,1453.034496,43591.03488,43591,1453.0333333333333,0.9942611155233863,1,1,2,2,2,3,b'NB_11_frameB.png',1454.0287571155234,43620.8627134657,43620,1454.0
88,1454.041088,43621.23264,43621,1454.0333333333333,1454.608384,43638.25152,43638,1454.6,1456.141312,43684.23936,43684,1456.1333333333334,1.3652120456608827,3,0,6,1,2,2,b'HB_1_frameB_foil.png',1457.5065240456609,43725.195721369826,43725,1457.5
89,1457.522688,43725.68064,43725,1457.5,1458.072576,43742.17728,43742,1458.0666666666666,1459.606528,43788.19584,43788,1459.6,0.8843091592470955,1,0,7,1,2,3,b'NB_12_frameB_foil.png',1460.4908371592471,43814.725114777415,43814,1460.4666666666667
90,1460.50048,43815.0144,43815,1460.5,1461.066752,43832.00256,43832,1461.0666666666666,1462.600704,43878.02112,43878,1462.6,1.8782544351729484,3,0,7,1,2,3,b'HB_9_frameB_foil.png',1464.478958435173,43934.36875305518,43934,1464.4666666666667
91,1464.491008,43934.73024,43934,1464.4666666666667,1465.023488,43950.70464,43950,1465.0,1466.55744,43996.7232,43996,1466.5333333333333,1.5425777809787178,2,0,7,1,2,3,b'SB_8_frameA_foil.png',1468.1000177809788,44043.00053342936,44043,1468.1
92,1468.11392,44043.4176,44043,1468.1,1468.663808,44059.91424,44059,1468.6333333333334,1470.19776,44105.9328,44105,1470.1666666666667,1.4619372084453062,2,1,2,2,2,3,b'SB_8_frameB.png',1471.6596972084453,44149.79091625336,44149,1471.6333333333334
93,1471.671296,44150.13888,44150,1471.6666666666667,1472.188416,44165.65248,44165,1472.1666666666667,1473.722368,44211.67104,44211,1473.7,1.0431385011493148,2,0,7,1,2,3,b'SB_6_frameA_foil.png',1474.7655065011493,44242.96519503448,44242,1474.7333333333333
94,1474.776064,44243.281919999994,44243,1474.7666666666667,1475.325952,44259.77856,44259,1475.3,1476.85888,44305.7664,44305,1476.8333333333333,1.0560959072286096,3,1,2,2,2,3,b'HB_2_frameA.png',1477.9149759072286,44337.44927721686,44337,1477.9
95,1477.925888,44337.77664,44337,1477.9,1478.475776,44354.27328,44354,1478.4666666666667,1480.009728,44400.29184,44400,1480.0,1.4013470036370563,1,1,2,2,2,3,b'NB_18_frameA.png',1481.411075003637,44442.33225010911,44442,1481.4
96,1481.422848,44442.68544,44442,1481.4,1481.92256,44457.6768,44457,1481.9,1483.456512,44503.69536,44503,1483.4333333333334,1.4900867835003737,3,1,7,1,1,3,b'HB_5_frameA.png',1484.9465987835003,44548.39796350501,44548,1484.9333333333334
97,1484.9505279999998,44548.51583999999,44548,1484.9333333333334,1485.4338559999999,44563.01568,44563,1485.4333333333334,1486.989312,44609.679359999995,44609,1486.9666666666667,1.8411075033118323,3,0,3,2,1,2,b'HB_1_frameA_foil.png',1488.8304195033118,44664.91258509935,44664,1488.8
98,1488.8447999999999,44665.344,44665,1488.8333333333333,1489.37728,44681.3184,44681,1489.3666666666666,1490.911232,44727.33696,44727,1490.9,1.6082355619541886,2,1,2,2,2,3,b'SB_7_frameB.png',1492.5194675619541,44775.584026858625,44775,1492.5
99,1492.5260799999999,44775.7824,44775,1492.5,1493.0759679999999,44792.279039999994,44792,1493.0666666666666,1494.6099199999999,44838.2976,44838,1494.6,0.6645151316520241,2,0,7,1,2,3,b'SB_3_frameB_foil.png',1495.274435131652,44858.23305394956,44858,1495.2666666666667
100,1495.287808,44858.63424,44858,1495.2666666666667,1495.8376959999998,44875.13088,44875,1495.8333333333333,1497.370624,44921.11872,44921,1497.3666666666666,0.38437882542848456,2,0,6,1,2,2,b'SB_4_frameA_foil.png',1497.7550028254284,44932.65008476285,44932,1497.7333333333333
101,1497.769984,44933.09952,44933,1497.7666666666667,1498.2860799999999,44948.5824,44948,1498.2666666666667,1499.8200319999999,44994.600959999996,44994,1499.8,1.6510536018340645,1,0,7,1,2,3,b'NB_27_frameA_foil.png',1501.471085601834,45044.132568055014,45044,1501.4666666666667
102,1501.478912,45044.367360000004,45044,1501.4666666666667,1501.9622399999998,45058.86719999999,45058,1501.9333333333334,1503.4961919999998,45104.88576,45104,1503.4666666666667,1.650725670795964,2,0,6,1,2,2,b'SB_1_frameB_foil.png',1505.1469176707958,45154.40753012388,45154,1505.1333333333334
103,1505.1622399999999,45154.86719999999,45154,1505.1333333333334,1505.678336,45170.35008,45170,1505.6666666666667,1507.212288,45216.36864,45216,1507.2,1.3131074353836993,3,1,2,2,2,3,b'HB_6_frameA.png',1508.5253954353836,45255.76186306151,45255,1508.5
104,1508.5424639999999,45256.27392,45256,1508.5333333333333,1509.042176,45271.26528,45271,1509.0333333333333,1510.576128,45317.28384,45317,1510.5666666666666,0.5703036589156909,1,0,7,1,2,3,b'NB_23_frameA_foil.png',1511.1464316589156,45334.39294976747,45334,1511.1333333333334
105,1511.148544,45334.45632,45334,1511.1333333333334,1511.66464,45349.9392,45349,1511.6333333333334,1513.198592,45395.95776,45395,1513.1666666666667,1.8039473325675317,1,1,2,2,2,3,b'NB_9_frameB.png',1515.0025393325675,45450.076179977026,45450,1515.0
106,1515.008,45450.24,45450,1515.0,1515.5578879999998,45466.736639999996,45466,1515.5333333333333,1517.090816,45512.72448,45512,1517.0666666666666,1.268333124334731,2,1,2,2,2,3,b'SB_7_frameA.png',1518.3591491243346,45550.77447373004,45550,1518.3333333333333
107,1518.3790079999999,45551.37024,45551,1518.3666666666666,1518.895104,45566.85312,45566,1518.8666666666666,1520.429056,45612.87168,45612,1520.4,1.511736988796656,2,1,2,2,2,3,b'SB_1_frameA.png',1521.9407929887966,45658.2237896639,45658,1521.9333333333334
108,1521.9527679999999,45658.58304,45658,1521.9333333333334,1522.468864,45674.06592,45674,1522.4666666666667,1524.002816,45720.08448,45720,1524.0,1.1810821247527201,1,0,7,1,2,3,b'NB_19_frameA_foil.png',1525.1838981247527,45755.51694374258,45755,1525.1666666666667
109,1525.193728,45755.81184,45755,1525.1666666666667,1525.69344,45770.8032,45770,1525.6666666666667,1527.227392,45816.82176,45816,1527.2,0.9424197517969333,1,1,2,2,2,3,b'NB_2_frameA.png',1528.169811751797,45845.09435255391,45845,1528.1666666666667
110,1528.18688,45845.6064,45845,1528.1666666666667,1528.736768,45862.10304,45862,1528.7333333333333,1530.27072,45908.1216,45908,1530.2666666666667,0.8424442985265159,2,1,4,2,2,1,b'SB_6_frameB.png',1531.1131642985265,45933.39492895579,45933,1531.1
111,1531.117568,45933.52703999999,45933,1531.1,1531.6019199999998,45948.05759999999,45948,1531.6,1533.134848,45994.045439999994,45994,1533.1333333333334,1.9543911444629884,1,0,7,1,2,3,b'NB_7_frameA_foil.png',1535.089239144463,46052.67717433389,46052,1535.0666666666666
112,1535.091712,46052.751359999995,46052,1535.0666666666666,1535.625216,46068.75648,46068,1535.6,1537.158144,46114.74432,46114,1537.1333333333334,1.383767706765866,1,0,7,1,2,3,b'NB_3_frameA_foil.png',1538.5419117067659,46156.25735120298,46156,1538.5333333333333
113,1538.553856,46156.61568,46156,1538.5333333333333,1539.037184,46171.11552,46171,1539.0333333333333,1540.571136,46217.13408,46217,1540.5666666666666,1.906873481726052,2,0,7,1,2,3,b'SB_2_frameA_foil.png',1542.478009481726,46274.340284451784,46274,1542.4666666666667
114,1542.480896,46274.42688,46274,1542.4666666666667,1543.0133759999999,46290.40128,46290,1543.0,1544.5473279999999,46336.419839999995,46336,1544.5333333333333,1.1060296956702587,1,0,7,1,2,3,b'NB_5_frameA_foil.png',1545.6533576956701,46369.6007308701,46369,1545.6333333333334
115,1545.6583679999999,46369.751039999996,46369,1545.6333333333334,1546.125312,46383.75936,46383,1546.1,1547.659264,46429.77791999999,46429,1547.6333333333334,1.1112841703397862,1,1,2,2,2,3,b'NB_17_frameB.png',1548.7705481703397,46463.116445110194,46463,1548.7666666666667
116,1548.7764479999998,46463.293439999994,46463,1548.7666666666667,1549.2597759999999,46477.79328,46477,1549.2333333333333,1550.792704,46523.78112,46523,1550.7666666666667,1.3614024233743294,3,0,3,2,1,2,b'HB_6_frameB_foil.png',1552.1541064233743,46564.62319270123,46564,1552.1333333333334
117,1552.1617919999999,46564.85376,46564,1552.1333333333334,1552.628736,46578.86208,46578,1552.6,1554.162688,46624.880639999996,46624,1554.1333333333334,1.0962029213387723,1,1,2,2,2,3,b'NB_27_frameB.png',1555.2588909213387,46657.76672764016,46657,1555.2333333333333
118,1555.270656,46658.119679999996,46658,1555.2666666666667,1555.80416,46674.1248,46674,1555.8,1557.337088,46720.11264,46720,1557.3333333333333,1.0917521043343186,3,1,7,1,1,3,b'HB_1_frameA.png',1558.4288401043343,46752.86520313003,46752,1558.4
119,1558.437888,46753.13664,46753,1558.4333333333334,1558.938624,46768.15872,46768,1558.9333333333334,1560.471552,46814.14656,46814,1560.4666666666667,1.5895118901926253,3,0,3,2,1,2,b'HB_2_frameB_foil.png',1562.0610638901926,46861.83191670578,46861,1562.0333333333333
120,1562.075136,46862.25408,46862,1562.0666666666666,1562.60864,46878.2592,46878,1562.6,1564.141568,46924.24704,46924,1564.1333333333334,0.9715734165251888,2,1,2,2,2,3,b'SB_5_frameB.png',1565.1131414165252,46953.39424249576,46953,1565.1
121,1565.12256,46953.6768,46953,1565.1,1565.6058879999998,46968.17664,46968,1565.6,1567.1398399999998,47014.195199999995,47014,1567.1333333333334,1.9406724094492347,1,0,6,1,2,2,b'NB_13_frameA_foil.png',1569.080512409449,47072.415372283474,47072,1569.0666666666666
122,1569.0936319999998,47072.808959999995,47072,1569.0666666666666,1569.6271359999998,47088.81408,47088,1569.6,1571.160064,47134.80192,47134,1571.1333333333334,0.20554985959461192,1,1,7,1,1,3,b'NB_7_frameB.png',1571.3656138595945,47140.96841578784,47140,1571.3333333333333
123,1571.381248,47141.437439999994,47141,1571.3666666666666,1571.88096,47156.4288,47156,1571.8666666666666,1573.4138879999998,47202.416639999996,47202,1573.4,1.5039406691198565,2,1,2,2,2,3,b'SB_3_frameA.png',1574.9178286691197,47247.53486007359,47247,1574.9
124,1574.923264,47247.69792,47247,1574.9,1575.4229759999998,47262.68927999999,47262,1575.4,1576.9569279999998,47308.707839999995,47308,1576.9333333333334,0.7439754361857922,2,0,6,1,2,2,b'SB_6_frameA_foil.png',1577.7009034361856,47331.027103085566,47331,1577.7
125,1577.714688,47331.44064,47331,1577.7,1578.181632,47345.44896,47345,1578.1666666666667,1579.71456,47391.436799999996,47391,1579.7,1.3424173495004652,3,0,2,2,1,3,b'HB_6_frameA_foil.png',1581.0569773495004,47431.70932048501,47431,1581.0333333333333
126,1581.067264,47432.01792,47432,1581.0666666666666,1581.617152,47448.51456,47448,1581.6,1583.151104,47494.53312,47494,1583.1333333333334,0.7989794878812972,2,1,2,2,2,3,b'SB_2_frameA.png',1583.9500834878813,47518.50250463644,47518,1583.9333333333334
127,1583.962112,47518.863359999996,47518,1583.9333333333334,1584.479232,47534.376959999994,47534,1584.4666666666667,1586.01216,47580.3648,47580,1586.0,0.8370902033511811,2,1,6,1,1,2,b'SB_5_frameA.png',1586.8492502033512,47605.477506100535,47605,1586.8333333333333
128,1586.8600319999998,47605.80095999999,47605,1586.8333333333333,1587.3433599999998,47620.3008,47620,1587.3333333333333,1588.8773119999998,47666.319359999994,47666,1588.8666666666666,1.1025197348103575,2,0,3,2,1,2,b'SB_3_frameA_foil.png',1589.9798317348102,47699.394952044306,47699,1589.9666666666667
129,1589.994496,47699.83488,47699,1589.9666666666667,1590.561792,47716.85376,47716,1590.5333333333333,1592.0947199999998,47762.84159999999,47762,1592.0666666666666,1.0155460767964541,1,0,7,1,2,3,b'NB_24_frameB_foil.png',1593.1102660767963,47793.307982303886,47793,1593.1
130,1593.1197439999999,47793.592319999996,47793,1593.1,1593.6030719999999,47808.09216,47808,1593.6,1595.1370239999999,47854.11072,47854,1595.1333333333334,1.3845461009618703,3,0,3,2,1,2,b'HB_5_frameB_foil.png',1596.5215701009618,47895.64710302885,47895,1596.5
131,1596.534784,47896.04352,47896,1596.5333333333333,1597.068288,47912.04864,47912,1597.0666666666666,1598.60224,47958.0672,47958,1598.6,2.198214107140757,3,1,2,2,2,3,b'HB_5_frameB.png',1600.8004541071407,48024.01362321422,48024,1600.8
132,1600.813056,48024.39168,48024,1600.8,1601.296384,48038.89152,48038,1601.2666666666667,1602.830336,48084.91008,48084,1602.8,1.6815725846836358,3,1,2,2,2,3,b'HB_8_frameB.png',1604.5119085846836,48135.35725754051,48135,1604.5
133,1604.528128,48135.84384,48135,1604.5,1605.078016,48152.34048,48152,1605.0666666666666,1606.611968,48198.359039999996,48198,1606.6,0.098804872708115,1,0,2,2,1,3,b'NB_17_frameA_foil.png',1606.710772872708,48201.32318618124,48201,1606.7
134,1606.714368,48201.431039999996,48201,1606.7,1607.2151039999999,48216.45312,48216,1607.2,1608.748032,48262.44096,48262,1608.7333333333333,1.226235034354886,3,1,3,2,2,2,b'HB_4_frameA.png',1609.9742670343549,48299.228011030646,48299,1609.9666666666667
135,1609.9768319999998,48299.304959999994,48299,1609.9666666666667,1610.5103359999998,48315.310079999996,48315,1610.5,1612.0442879999998,48361.32863999999,48361,1612.0333333333333,1.9174311212486828,1,0,2,2,1,3,b'NB_10_frameB_foil.png',1613.9617191212485,48418.851573637454,48418,1613.9333333333334
136,1613.9776,48419.328,48419,1613.9666666666667,1614.444544,48433.33632,48433,1614.4333333333334,1615.977472,48479.324160000004,48479,1615.9666666666667,1.4124505911358938,2,0,2,2,1,3,b'SB_6_frameB_foil.png',1617.389922591136,48521.697677734075,48521,1617.3666666666666
137,1617.404928,48522.14784,48522,1617.4,1617.871872,48536.15616,48536,1617.8666666666666,1619.405824,48582.174719999995,48582,1619.4,0.4372820163293909,1,1,2,2,2,3,b'NB_26_frameA.png',1619.8431060163293,48595.29318048988,48595,1619.8333333333333
138,1619.85024,48595.5072,48595,1619.8333333333333,1620.333568,48610.00704,48610,1620.3333333333333,1621.8664959999999,48655.99488,48655,1621.8333333333333,1.6540136135217836,2,1,2,2,2,3,b'SB_6_frameB.png',1623.5205096135217,48705.61528840565,48705,1623.5
139,1623.529472,48705.88416,48705,1623.5,1624.062976,48721.889279999996,48721,1624.0333333333333,1625.595904,48767.87712,48767,1625.5666666666666,1.6696585091549423,3,0,2,2,1,3,b'HB_2_frameB_foil.png',1627.265562509155,48817.96687527465,48817,1627.2333333333333
140,1627.2752639999999,48818.25792,48818,1627.2666666666667,1627.825152,48834.754559999994,48834,1627.8,1629.35808,48880.7424,48880,1629.3333333333333,1.6459489415642565,2,0,6,1,2,2,b'SB_4_frameB_foil.png',1631.0040289415642,48930.12086824693,48930,1631.0
141,1631.01696,48930.508799999996,48930,1631.0,1631.516672,48945.500159999996,48945,1631.5,1633.0495999999998,48991.488,48991,1633.0333333333333,1.4766303768346916,2,1,7,1,1,3,b'SB_1_frameA.png',1634.5262303768345,49035.78691130503,49035,1634.5
142,1634.542592,49036.27776,49036,1634.5333333333333,1635.09248,49052.7744,49052,1635.0666666666666,1636.6254079999999,49098.76224,49098,1636.6,1.471619112964163,2,1,7,1,1,3,b'SB_3_frameB.png',1638.097027112964,49142.910813388924,49142,1638.0666666666666
143,1638.10304,49143.091199999995,49143,1638.1,1638.586368,49157.59104,49157,1638.5666666666666,1640.12032,49203.609599999996,49203,1640.1,0.7971817530619774,1,1,6,1,1,2,b'NB_3_frameB.png',1640.917501753062,49227.52505259186,49227,1640.9
144,1640.925184,49227.75552,49227,1640.9,1641.475072,49244.25216,49244,1641.4666666666667,1643.009024,49290.27072,49290,1643.0,0.6431677218356526,3,1,2,2,2,3,b'HB_7_frameA.png',1643.6521917218356,49309.56575165507,49309,1643.6333333333334
145,1643.669504,49310.085119999996,49310,1643.6666666666667,1644.219392,49326.58176,49326,1644.2,1645.753344,49372.60032,49372,1645.7333333333333,0.6946986719149209,3,1,7,1,1,3,b'HB_9_frameA.png',1646.448042671915,49393.44128015744,49393,1646.4333333333334
146,1646.464,49393.92,49393,1646.4333333333334,1646.913536,49407.40608,49407,1646.9,1648.4802559999998,49454.40768,49454,1648.4666666666667,0.6974607996130544,1,1,3,2,2,2,b'NB_8_frameA.png',1649.1777167996129,49475.33150398839,49475,1649.1666666666667
147,1649.1878399999998,49475.6352,49475,1649.1666666666667,1649.65376,49489.612799999995,49489,1649.6333333333334,1651.187712,49535.63136,49535,1651.1666666666667,1.2020707003407551,3,1,2,2,2,3,b'HB_5_frameA.png',1652.3897827003407,49571.69348101022,49571,1652.3666666666666
148,1652.400128,49572.00384,49572,1652.4,1652.917248,49587.517439999996,49587,1652.9,1654.4501759999998,49633.50528,49633,1654.4333333333334,1.1124691962463658,2,0,2,2,1,3,b'SB_1_frameB_foil.png',1655.5626451962462,49666.87935588739,49666,1655.5333333333333
149,1655.570432,49667.11296,49667,1655.5666666666666,1656.0865279999998,49682.595839999994,49682,1656.0666666666666,1657.6204799999998,49728.61439999999,49728,1657.6,1.9683736346864862,1,0,3,2,1,2,b'NB_6_frameB_foil.png',1659.5888536346863,49787.66560904059,49787,1659.5666666666666
150,1659.603968,49788.11904,49788,1659.6,1660.070912,49802.12736,49802,1660.0666666666666,1661.604864,49848.145919999995,49848,1661.6,0.9681554791445706,2,1,2,2,2,3,b'SB_2_frameB.png',1662.5730194791445,49877.19058437434,49877,1662.5666666666666
151,1662.5756159999999,49877.26848,49877,1662.5666666666666,1663.091712,49892.751359999995,49892,1663.0666666666666,1664.625664,49938.76992,49938,1664.6,1.2738172842573476,1,1,5,1,1,1,b'NB_6_frameA.png',1665.8994812842573,49976.98443852772,49976,1665.8666666666666
152,1665.913856,49977.41568,49977,1665.9,1666.397184,49991.915519999995,49991,1666.3666666666666,1667.931136,50037.93408,50037,1667.9,1.041393739619707,3,0,2,2,1,3,b'HB_8_frameA_foil.png',1668.9725297396196,50069.17589218859,50069,1668.9666666666667
153,1668.9797119999998,50069.391359999994,50069,1668.9666666666667,1669.5132159999998,50085.396479999996,50085,1669.5,1671.046144,50131.38432,50131,1671.0333333333333,1.1658684642316075,1,0,2,2,1,3,b'NB_21_frameA_foil.png',1672.2120124642315,50166.360373926946,50166,1672.2
154,1672.22784,50166.8352,50166,1672.2,1672.7275519999998,50181.826559999994,50181,1672.7,1674.2615039999998,50227.84512,50227,1674.2333333333333,0.9452302093727667,1,0,2,2,1,3,b'NB_15_frameA_foil.png',1675.2067342093726,50256.20202628118,50256,1675.2
155,1675.225088,50256.75264,50256,1675.2,1675.7248,50271.744,50271,1675.7,1677.258752,50317.762559999996,50317,1677.2333333333333,1.8376211291788422,1,1,2,2,2,3,b'NB_20_frameA.png',1679.0963731291788,50372.891193875366,50372,1679.0666666666666
156,1679.1121919999998,50373.36575999999,50373,1679.1,1679.6282879999999,50388.84864,50388,1679.6,1681.1622399999999,50434.86719999999,50434,1681.1333333333334,1.1878898829172613,2,0,5,1,2,1,b'SB_9_frameB_foil.png',1682.3501298829171,50470.50389648751,50470,1682.3333333333333
157,1682.364416,50470.932479999996,50470,1682.3333333333333,1682.880512,50486.41536,50486,1682.8666666666666,1684.414464,50532.433919999996,50532,1684.4,1.2741676565310627,3,0,3,2,1,2,b'HB_2_frameA_foil.png',1685.688631656531,50570.65894969593,50570,1685.6666666666667
158,1685.705728,50571.171839999995,50571,1685.7,1686.255616,50587.66848,50587,1686.2333333333333,1687.788544,50633.65632,50633,1687.7666666666667,1.450270173561421,2,0,2,2,1,3,b'SB_5_frameA_foil.png',1689.2388141735614,50677.16442520684,50677,1689.2333333333333
159,1689.25184,50677.555199999995,50677,1689.2333333333333,1689.7689599999999,50693.068799999994,50693,1689.7666666666667,1691.3029119999999,50739.08736,50739,1691.3,1.8284755156792016,3,0,2,2,1,3,b'HB_3_frameB_foil.png',1693.131387515679,50793.941625470376,50793,1693.1
160,1693.1327999999999,50793.984,50793,1693.1,1693.6826879999999,50810.480639999994,50810,1693.6666666666667,1695.2166399999999,50856.4992,50856,1695.2,0.969351821165219,2,1,7,1,1,3,b'SB_4_frameA.png',1696.185991821165,50885.57975463495,50885,1696.1666666666667
161,1696.2037759999998,50886.11328,50886,1696.2,1696.719872,50901.596159999994,50901,1696.7,1698.253824,50947.61472,50947,1698.2333333333333,0.4394304741676933,1,1,2,2,2,3,b'NB_21_frameB.png',1698.6932544741676,50960.797634225026,50960,1698.6666666666667
162,1698.704384,50961.131519999995,50961,1698.7,1699.2215039999999,50976.645119999994,50976,1699.2,1700.754432,51022.632959999995,51022,1700.7333333333333,1.6082828122785031,3,1,7,1,1,3,b'HB_9_frameB.png',1702.3627148122785,51070.88144436835,51070,1702.3333333333333
163,1702.36928,51071.0784,51071,1702.3666666666666,1702.885376,51086.56128,51086,1702.8666666666666,1704.419328,51132.57984,51132,1704.4,0.6847324251207283,3,1,2,2,2,3,b'HB_4_frameB.png',1705.1040604251207,51153.12181275362,51153,1705.1
164,1705.110528,51153.315839999996,51153,1705.1,1705.611264,51168.33792,51168,1705.6,1707.144192,51214.32576,51214,1707.1333333333334,1.3246819868486455,3,0,2,2,1,3,b'HB_1_frameB_foil.png',1708.4688739868486,51254.06621960546,51254,1708.4666666666667
165,1708.471296,51254.13888,51254,1708.4666666666667,1709.003776,51270.11328,51270,1709.0,1710.537728,51316.13184,51316,1710.5333333333333,2.258016690182558,3,1,7,1,1,3,b'HB_2_frameA.png',1712.7957446901826,51383.87234070548,51383,1712.7666666666667
166,1712.813056,51384.39168,51384,1712.8,1713.296384,51398.89152,51398,1713.2666666666667,1714.830336,51444.91008,51444,1714.8,0.8990889588203572,1,0,7,1,2,3,b'NB_2_frameB_foil.png',1715.7294249588203,51471.88274876461,51471,1715.7
167,1715.7304319999998,51471.912959999994,51471,1715.7,1716.2301439999999,51486.904319999994,51486,1716.2,1717.7640959999999,51532.92288,51532,1717.7333333333333,1.9315894706846848,2,1,7,1,1,3,b'SB_1_frameB.png',1719.6956854706846,51590.87056412054,51590,1719.6666666666667
168,1719.6994559999998,51590.98368,51590,1719.6666666666667,1720.2493439999998,51607.480319999995,51607,1720.2333333333333,1721.7832959999998,51653.49887999999,51653,1721.7666666666667,1.8909271378884114,2,1,6,1,1,2,b'SB_3_frameA.png',1723.6742231378882,51710.22669413665,51710,1723.6666666666667
169,1723.6899839999999,51710.699519999995,51710,1723.6666666666667,1724.173312,51725.19936,51725,1724.1666666666667,1725.70624,51771.1872,51771,1725.7,1.5533246383879487,2,1,7,1,1,3,b'SB_1_frameA.png',1727.259564638388,51817.786939151636,51817,1727.2333333333333
170,1727.2719359999999,51818.158079999994,51818,1727.2666666666667,1727.755264,51832.65792,51832,1727.7333333333333,1729.289216,51878.676479999995,51878,1729.2666666666667,1.6901847345479837,1,0,7,1,2,3,b'NB_4_frameB_foil.png',1730.9794007345479,51929.382022036436,51929,1730.9666666666667
171,1731.009536,51930.28608,51930,1731.0,1731.5594239999998,51946.782719999996,51946,1731.5333333333333,1733.093376,51992.80128,51992,1733.0666666666666,0.29691194621045724,1,0,5,1,2,1,b'NB_30_frameB_foil.png',1733.3902879462105,52001.70863838631,52001,1733.3666666666666
172,1733.4016,52002.047999999995,52002,1733.4,1733.935104,52018.05312,52018,1733.9333333333334,1735.468032,52064.04096,52064,1735.4666666666667,1.4429257286624306,2,1,3,2,2,2,b'SB_1_frameB.png',1736.9109577286624,52107.328731859874,52107,1736.9
173,1736.920064,52107.60192,52107,1736.9,1737.387008,52121.610239999995,52121,1737.3666666666666,1738.919936,52167.59808,52167,1738.9,0.8515832724310712,2,1,7,1,1,3,b'SB_2_frameA.png',1739.771519272431,52193.14557817293,52193,1739.7666666666667
174,1739.7811199999999,52193.4336,52193,1739.7666666666667,1740.2480639999999,52207.44192,52207,1740.2333333333333,1741.780992,52253.42976,52253,1741.7666666666667,0.18727250534584527,2,0,7,1,2,3,b'SB_3_frameB_foil.png',1741.9682645053458,52259.04793516037,52259,1741.9666666666667
175,1741.9786239999999,52259.35872,52259,1741.9666666666667,1742.49472,52274.8416,52274,1742.4666666666667,1744.028672,52320.86016,52320,1744.0,1.3235543459418295,1,1,5,1,1,1,b'NB_22_frameA.png',1745.3522263459417,52360.56679037825,52360,1745.3333333333333
176,1745.360896,52360.82688,52360,1745.3333333333333,1745.910784,52377.32352,52377,1745.9,1747.444736,52423.342079999995,52423,1747.4333333333334,0.8792581225256981,2,0,3,2,1,2,b'SB_2_frameB_foil.png',1748.3239941225256,52449.71982367577,52449,1748.3
177,1748.384768,52451.54304,52451,1748.3666666666666,1748.94592,52468.3776,52468,1748.9333333333334,1750.4552959999999,52513.658879999995,52513,1750.4333333333334,0.6454941062957005,2,1,2,2,2,3,b'SB_30_frameA.png',1751.1007901062956,52533.02370318887,52533,1751.1
178,1751.150592,52534.51776,52534,1751.1333333333334,1751.670784,52550.123519999994,52550,1751.6666666666667,1753.19552,52595.8656,52595,1753.1666666666667,1.548826718111286,2,0,7,1,2,3,b'SB_30_frameB_foil.png',1754.7443467181113,52642.33040154334,52642,1754.7333333333333
179,1754.8062719999998,52644.18815999999,52644,1754.8,1755.373568,52661.20704,52661,1755.3666666666666,1756.882944,52706.48832,52706,1756.8666666666666,1.1422676680090262,3,1,7,1,1,3,b'HB_30_frameB.png',1758.025211668009,52740.75635004027,52740,1758.0
180,1758.0421119999999,52741.26336,52741,1758.0333333333333,1758.6585599999999,52759.756799999996,52759,1758.6333333333334,1760.1812479999999,52805.437439999994,52805,1760.1666666666667,0.27758083347907814,3,0,6,1,2,2,b'HB_30_frameA_foil.png',1760.458828833479,52813.76486500437,52813,1760.4333333333334
