trial_num,fixcross_time,fixation_HZ,fixation_bin,fixation_regarded,start_time,Fstart_HZ,Fstart_bin,Fstart_regarded,stop_time,Fstop_HZ,Fstop_bin,Fstop_regarded,RT,boundary_type,stimuli_type,resp_value,old_new,accuracy,confidence,frameName,response_time,response_HZ,response_bin,response_regarded
1,1137.310256,34119.30768,34119,1137.3,1137.8102615,34134.307845,34134,1137.8,1139.34463625,34180.3390875,34180,1139.3333333333333,2.302446972913458,3,0,7,1,2,3,b'HB_1_frameB_foil.png',1141.6470832229134,34249.4124966874,34249,1141.6333333333334
2,1141.67251475,34250.175442499996,34250,1141.6666666666667,1142.23918675,34267.1756025,34267,1142.2333333333333,1143.77265875,34313.179762499996,34313,1143.7666666666667,1.9068126984493574,1,0,7,1,2,3,b'NB_9_frameA_foil.png',1145.6794714484492,34370.38414345348,34370,1145.6666666666667
3,1145.68528425,34370.5585275,34370,1145.6666666666667,1146.2186605,34386.559815,34386,1146.2,1147.75221025,34432.5663075,34432,1147.7333333333333,0.17913435582158854,2,1,2,2,2,3,b'SB_3_frameB.png',1147.9313446058216,34437.940338174645,34437,1147.9
4,1147.94772225,34438.4316675,34438,1147.9333333333334,1148.44763075,34453.428922499996,34453,1148.4333333333334,1149.981171,34499.43513,34499,1149.9666666666667,0.0,2,1,1,0,1,0,b'SB_7_frameB.png',1149.981171,34499.43513,34499,1149.9666666666667
5,1152.05775275,34561.7325825,34561,1152.0333333333333,1152.52428825,34575.7286475,34575,1152.5,1154.05780925,34621.7342775,34621,1154.0333333333333,3.472538435118622,1,1,2,2,2,3,b'NB_28_frameA.png',1157.5303476851186,34725.91043055356,34725,1157.5
6,1157.54526625,34726.3579875,34726,1157.5333333333333,1158.11173575,34743.3520725,34743,1158.1,1159.645339,34789.36017,34789,1159.6333333333334,1.8309504307908355,1,1,2,2,2,3,b'NB_26_frameA.png',1161.4762894307908,34844.288682923725,34844,1161.4666666666667
7,1161.4862405,34844.587215,34844,1161.4666666666667,1161.9527765,34858.583295000004,34858,1161.9333333333334,1163.4863,34904.589,34904,1163.4666666666667,1.7108433358735056,2,1,2,2,2,3,b'SB_6_frameB.png',1165.1971433358735,34955.914300076205,34955,1165.1666666666667
8,1165.20187175,34956.0561525,34956,1165.2,1165.718619,34971.55857,34971,1165.7,1167.25193575,35017.5580725,35017,1167.2333333333333,2.403538900965941,3,0,6,1,2,2,b'HB_8_frameA_foil.png',1169.655474650966,35089.66423952898,35089,1169.6333333333334
9,1169.66685175,35090.0055525,35090,1169.6666666666667,1170.2001625,35106.004875,35106,1170.2,1171.7337555,35152.012664999995,35152,1171.7333333333333,0.9552886931342073,3,0,6,1,2,2,b'HB_9_frameB_foil.png',1172.6890441931341,35180.67132579402,35180,1172.6666666666667
10,1172.69860925,35180.958277499994,35180,1172.6666666666667,1173.2485984999998,35197.457955,35197,1173.2333333333333,1174.78222625,35243.466787499994,35243,1174.7666666666667,1.8816415861947462,1,0,6,1,2,2,b'NB_8_frameB_foil.png',1176.6638678361946,35299.91603508584,35299,1176.6333333333334
11,1176.67554425,35300.2663275,35300,1176.6666666666667,1177.192149,35315.76447,35315,1177.1666666666667,1178.72583325,35361.774997500004,35361,1178.7,2.38515957861091,3,0,6,1,2,2,b'HB_2_frameB_foil.png',1181.110992828611,35433.32978485833,35433,1181.1
12,1181.11978125,35433.5934375,35433,1181.1,1181.61973875,35448.5921625,35448,1181.6,1183.153303,35494.59909,35494,1183.1333333333334,0.915902594992076,2,1,2,2,2,3,b'SB_2_frameB.png',1184.0692055949921,35522.076167849766,35522,1184.0666666666666
13,1184.082772,35522.483159999996,35522,1184.0666666666666,1184.6160605,35538.481815,35538,1184.6,1186.149571,35584.487129999994,35584,1186.1333333333334,2.0180471877902164,3,1,2,2,2,3,b'HB_1_frameB.png',1188.1676181877901,35645.0285456337,35645,1188.1666666666667
14,1188.184524,35645.53572,35645,1188.1666666666667,1188.7344954999999,35662.034864999994,35662,1188.7333333333333,1190.2680942499999,35708.042827499994,35708,1190.2666666666667,2.2940913217971683,3,1,2,2,2,3,b'HB_2_frameA.png',1192.562185571797,35776.86556715391,35776,1192.5333333333333
15,1192.57024125,35777.1072375,35777,1192.5666666666666,1193.07014675,35792.1044025,35792,1193.0666666666666,1194.6036964999998,35838.110895,35838,1194.6,1.5703139338511392,1,1,3,2,2,2,b'NB_4_frameA.png',1196.174010433851,35885.22031301553,35885,1196.1666666666667
16,1196.181672,35885.45016,35885,1196.1666666666667,1196.66496025,35899.9488075,35899,1196.6333333333334,1198.1985097499999,35945.955292499995,35945,1198.1666666666667,-0.3795833403855795,3,1,3,2,2,2,b'HB_4_frameB.png',1197.8189264096143,35934.56779228843,35934,1197.8
17,1197.82639,35934.7917,35934,1197.8,1198.3262654999999,35949.787964999996,35949,1198.3,1199.8597985,35995.793954999994,35995,1199.8333333333333,0.733747607722762,1,1,3,2,2,2,b'NB_16_frameA.png',1200.5935461077227,36017.80638323168,36017,1200.5666666666666
18,1200.6056095,36018.168285,36018,1200.6,1201.0721925,36032.165775,36032,1201.0666666666666,1202.6057085,36078.171255,36078,1202.6,2.0641574088367634,1,1,2,2,2,3,b'NB_22_frameA.png',1204.6698659088368,36140.095977265104,36140,1204.6666666666667
19,1204.67227475,36140.1682425,36140,1204.6666666666667,1205.1389545,36154.168635,36154,1205.1333333333334,1206.6725609999999,36200.17683,36200,1206.6666666666667,2.1871730210841633,1,1,2,2,2,3,b'NB_25_frameB.png',1208.859734021084,36265.79202063252,36265,1208.8333333333333
20,1208.8695675,36266.087025,36266,1208.8666666666666,1209.40283825,36282.0851475,36282,1209.4,1210.9363395,36328.090185,36328,1210.9333333333334,0.9259275687072659,3,1,6,1,1,2,b'HB_2_frameB.png',1211.8622670687073,36355.86801206122,36355,1211.8333333333333
21,1211.8799585,36356.398754999995,36356,1211.8666666666666,1212.3632734999999,36370.898205,36370,1212.3333333333333,1213.896785,36416.903549999995,36416,1213.8666666666666,2.181198060789029,1,1,2,2,2,3,b'NB_14_frameA.png',1216.077983060789,36482.339491823666,36482,1216.0666666666666
22,1216.08703075,36482.6109225,36482,1216.0666666666666,1216.570324,36497.10972,36497,1216.5666666666666,1218.1038099999998,36543.114299999994,36543,1218.1,2.234584640675166,1,0,7,1,2,3,b'NB_12_frameB_foil.png',1220.338394640675,36610.15183922025,36610,1220.3333333333333
23,1220.34762275,36610.4286825,36610,1220.3333333333333,1220.88095675,36626.4287025,36626,1220.8666666666666,1222.41445125,36672.4335375,36672,1222.4,2.5143892554551712,1,0,6,1,2,2,b'NB_28_frameB_foil.png',1224.9288405054551,36747.865215163656,36747,1224.9
24,1224.9420575,36748.261725,36748,1224.9333333333334,1225.442001,36763.26003,36763,1225.4333333333334,1226.9924119999998,36809.772359999995,36809,1226.9666666666667,2.979234543745406,3,1,6,1,1,2,b'HB_8_frameB.png',1229.9716465437452,36899.14939631236,36899,1229.9666666666667
25,1229.97407375,36899.2222125,36899,1229.9666666666667,1230.4740835,36914.222505,36914,1230.4666666666667,1232.007825,36960.234749999996,36960,1232.0,2.6229841990134446,3,0,7,1,2,3,b'HB_2_frameA_foil.png',1234.6308091990134,37038.9242759704,37038,1234.6
26,1234.646499,37039.39497,37039,1234.6333333333334,1235.179826,37055.39478,37055,1235.1666666666667,1236.7133872499999,37101.4016175,37101,1236.7,1.1835945814455044,2,1,2,2,2,3,b'SB_2_frameA.png',1237.8969818314454,37136.909454943365,37136,1237.8666666666666
27,1237.9005184999999,37137.015555,37137,1237.9,1238.400475,37152.01425,37152,1238.4,1239.93412425,37198.023727499996,37198,1239.9333333333334,1.2157851669908268,1,1,2,2,2,3,b'NB_19_frameB.png',1241.1499094169908,37234.49728250972,37234,1241.1333333333334
28,1241.16046725,37234.8140175,37234,1241.1333333333334,1241.71042975,37251.3128925,37251,1241.7,1243.244003,37297.32009,37297,1243.2333333333333,2.1894784961477853,1,0,6,1,2,2,b'NB_1_frameA_foil.png',1245.4334814961478,37363.004444884435,37363,1245.4333333333334
29,1245.438222,37363.14666,37363,1245.4333333333334,1245.9715274999999,37379.145825,37379,1245.9666666666667,1247.5052107499998,37425.15632249999,37425,1247.5,2.2226796011964325,1,0,7,1,2,3,b'NB_4_frameB_foil.png',1249.7278903511963,37491.836710535885,37491,1249.7
30,1249.7355465,37492.066395,37492,1249.7333333333333,1250.252071,37507.56213,37507,1250.2333333333333,1251.7857565,37553.572694999995,37553,1251.7666666666667,1.4569511503723334,1,1,2,2,2,3,b'NB_27_frameB.png',1253.2427076503723,37597.281229511165,37597,1253.2333333333333
31,1253.257134,37597.71402,37597,1253.2333333333333,1253.790638,37613.71914,37613,1253.7666666666667,1255.3239715,37659.719144999995,37659,1255.3,1.7610090289599611,1,0,7,1,2,3,b'NB_14_frameB_foil.png',1257.08498052896,37712.549415868794,37712,1257.0666666666666
32,1257.093089,37712.792669999995,37712,1257.0666666666666,1257.6263032499999,37728.7890975,37728,1257.6,1259.1599267499998,37774.7978025,37774,1259.1333333333334,1.1866077899830998,1,0,7,1,2,3,b'NB_2_frameB_foil.png',1260.346534539983,37810.39603619949,37810,1260.3333333333333
33,1260.34825575,37810.4476725,37810,1260.3333333333333,1260.8482932499999,37825.448797499994,37825,1260.8333333333333,1262.38177825,37871.4533475,37871,1262.3666666666666,2.0654426741748466,1,1,2,2,2,3,b'NB_17_frameB.png',1264.4472209241749,37933.416627725244,37933,1264.4333333333334
34,1264.46429075,37933.9287225,37933,1264.4333333333334,1264.964362,37948.93086,37948,1264.9333333333334,1266.498022,37994.94066,37994,1266.4666666666667,1.4516821037250338,2,0,7,1,2,3,b'SB_3_frameB_foil.png',1267.949704103725,38038.49112311175,38038,1267.9333333333334
35,1267.95871475,38038.7614425,38038,1267.9333333333334,1268.491929,38054.75787,38054,1268.4666666666667,1270.0256295,38100.768885,38100,1270.0,0.7434995868097758,2,1,3,2,2,2,b'SB_3_frameA.png',1270.7691290868097,38123.07387260429,38123,1270.7666666666667
36,1270.7747534999999,38123.24260499999,38123,1270.7666666666667,1271.29126,38138.7378,38138,1271.2666666666667,1272.82505625,38184.7516875,38184,1272.8,0.815588100500463,2,0,6,1,2,2,b'SB_9_frameB_foil.png',1273.6406443505005,38209.219330515014,38209,1273.6333333333334
37,1273.646794,38209.40382,38209,1273.6333333333334,1274.1134755,38223.404265000005,38223,1274.1,1275.64693625,38269.4080875,38269,1275.6333333333334,0.27511249492818024,3,0,7,1,2,3,b'HB_2_frameB_foil.png',1275.9220487449281,38277.661462347845,38277,1275.9
38,1275.9382165,38278.146495,38278,1275.9333333333334,1276.4547492499998,38293.6424775,38293,1276.4333333333334,1277.98827125,38339.6481375,38339,1277.9666666666667,1.5317692210519454,1,1,2,2,2,3,b'NB_24_frameA.png',1279.520040471052,38385.60121413156,38385,1279.5
39,1279.52277775,38385.6833325,38385,1279.5,1279.989425,38399.68275,38399,1279.9666666666667,1281.5229312499998,38445.68793749999,38445,1281.5,3.181583429854072,1,1,3,2,2,2,b'NB_3_frameB.png',1284.704514679854,38541.135440395614,38541,1284.7
40,1284.7108812499998,38541.32643749999,38541,1284.7,1285.194159,38555.82477,38555,1285.1666666666667,1286.72775975,38601.8327925,38601,1286.7,1.0677750866307179,3,0,2,2,1,3,b'HB_7_frameB_foil.png',1287.7955348366306,38633.86604509892,38633,1287.7666666666667
41,1287.80917525,38634.2752575,38634,1287.8,1288.2923899999998,38648.7717,38648,1288.2666666666667,1289.8258495,38694.775485,38694,1289.8,1.1509250132949091,2,1,3,2,2,2,b'SB_8_frameB.png',1290.976774513295,38729.303235398846,38729,1290.9666666666667
42,1290.9854787499999,38729.564362499994,38729,1290.9666666666667,1291.51875475,38745.5626425,38745,1291.5,1293.05234025,38791.5702075,38791,1293.0333333333333,0.9115475434882683,2,0,7,1,2,3,b'SB_9_frameA_foil.png',1293.9638877934883,38818.91663380465,38818,1293.9333333333334
43,1293.97948325,38819.384497499996,38819,1293.9666666666667,1294.4794695,38834.384085,38834,1294.4666666666667,1296.0129622499999,38880.3888675,38880,1296.0,-0.29203843690629583,3,1,7,1,1,3,b'HB_6_frameA.png',1295.7209238130936,38871.62771439281,38871,1295.7
44,1295.7306302499999,38871.918907499996,38871,1295.7,1296.2305522499998,38886.9165675,38886,1296.2,1297.76432325,38932.929697499996,38932,1297.7333333333333,2.5645645244512707,2,1,2,2,2,3,b'SB_8_frameA.png',1300.3288877744512,39009.866633233534,39009,1300.3
45,1300.33232725,39009.9698175,39009,1300.3,1300.8823165,39026.469495,39026,1300.8666666666666,1302.4160427499999,39072.4812825,39072,1302.4,1.5887107922462747,2,0,6,1,2,2,b'SB_3_frameA_foil.png',1304.0047535422461,39120.142606267385,39120,1304.0
46,1304.0221875,39120.665625,39120,1304.0,1304.55543625,39136.6630875,39136,1304.5333333333333,1306.08894825,39182.6684475,39182,1306.0666666666666,1.8492923689846066,3,1,7,1,1,3,b'HB_9_frameA.png',1307.9382406189845,39238.14721856954,39238,1307.9333333333334
47,1307.94382,39238.3146,39238,1307.9333333333334,1308.44377375,39253.3132125,39253,1308.4333333333334,1309.9772625,39299.317875,39299,1309.9666666666667,1.5866508029357647,3,1,7,1,1,3,b'HB_3_frameA.png',1311.5639133029358,39346.91739908807,39346,1311.5333333333333
48,1311.57024325,39347.1072975,39347,1311.5666666666666,1312.120197,39363.60591,39363,1312.1,1313.65368375,39409.6105125,39409,1313.6333333333334,1.8794669884009636,2,1,2,2,2,3,b'SB_2_frameA.png',1315.533150738401,39465.99452215203,39465,1315.5
49,1315.53821525,39466.1464575,39466,1315.5333333333333,1316.038087,39481.142609999995,39481,1316.0333333333333,1317.57153625,39527.1460875,39527,1317.5666666666666,1.1034213030943647,3,0,2,2,1,3,b'HB_4_frameA_foil.png',1318.6749575530944,39560.24872659283,39560,1318.6666666666667
50,1318.68764975,39560.6294925,39560,1318.6666666666667,1319.1876157499998,39575.62847249999,39575,1319.1666666666667,1320.72131775,39621.6395325,39621,1320.7,3.2146594857185846,2,1,7,1,1,3,b'SB_5_frameB.png',1323.9359772357186,39718.079317071555,39718,1323.9333333333334
51,1323.9487299999998,39718.461899999995,39718,1323.9333333333334,1324.43201175,39732.9603525,39732,1324.4,1325.965546,39778.96638,39778,1325.9333333333334,1.0782595655327896,2,0,7,1,2,3,b'SB_1_frameA_foil.png',1327.0438055655327,39811.31416696598,39811,1327.0333333333333
52,1327.054334,39811.63002,39811,1327.0333333333333,1327.6209075,39828.627225,39828,1327.6,1329.1544744999999,39874.634235,39874,1329.1333333333334,0.9430926136483322,3,1,7,1,1,3,b'HB_1_frameA.png',1330.0975671136482,39902.92701340945,39902,1330.0666666666666
53,1330.10306625,39903.091987499996,39903,1330.1,1330.6196585,39918.589755,39918,1330.6,1332.1531089999999,39964.59327,39964,1332.1333333333334,2.121511738630943,1,0,6,1,2,2,b'NB_19_frameA_foil.png',1334.2746207386308,40028.238622158926,40028,1334.2666666666667
54,1334.28957825,40028.6873475,40028,1334.2666666666667,1334.80628925,40044.1886775,40044,1334.8,1336.339708,40090.19124,40090,1336.3333333333333,1.5579068879742408,1,1,3,2,2,2,b'NB_23_frameB.png',1337.8976148879742,40136.92844663923,40136,1337.8666666666666
55,1337.91195625,40137.358687500004,40137,1337.9,1338.428568,40152.85704,40152,1338.4,1339.9620485,40198.861455,40198,1339.9333333333334,1.1419180129669257,2,1,7,1,1,3,b'SB_5_frameA.png',1341.103966512967,40233.118995389006,40233,1341.1
56,1341.12251,40233.675299999995,40233,1341.1,1341.6891067499998,40250.673202499995,40250,1341.6666666666667,1343.22275625,40296.6826875,40296,1343.2,1.2503424100214033,1,0,6,1,2,2,b'NB_10_frameB_foil.png',1344.4730986600214,40334.19295980064,40334,1344.4666666666667
57,1344.48733275,40334.6199825,40334,1344.4666666666667,1344.98729375,40349.6188125,40349,1344.9666666666667,1346.5208317499998,40395.624952499995,40395,1346.5,0.2775820815877523,2,1,2,2,2,3,b'SB_4_frameB.png',1346.7984138315876,40403.95241494763,40403,1346.7666666666667
58,1346.803176,40404.095279999994,40404,1346.8,1347.286415,40418.592450000004,40418,1347.2666666666667,1348.8200405,40464.601215,40464,1348.8,1.7880278904776787,2,0,6,1,2,2,b'SB_1_frameB_foil.png',1350.6080683904777,40518.24205171433,40518,1350.6
59,1350.615898,40518.47694,40518,1350.6,1351.165867,40534.97601,40534,1351.1333333333334,1352.6994049999998,40580.982149999996,40580,1352.6666666666667,0.9647644835713436,3,1,3,2,2,2,b'HB_1_frameB.png',1353.6641694835712,40609.92508450714,40609,1353.6333333333334
60,1353.67838925,40610.3516775,40610,1353.6666666666667,1354.26157875,40627.8473625,40627,1354.2333333333333,1355.79528425,40673.85852749999,40673,1355.7666666666667,0.9795091350388248,2,0,6,1,2,2,b'SB_6_frameA_foil.png',1356.7747933850387,40703.24380155116,40703,1356.7666666666667
61,1356.779687,40703.39061,40703,1356.7666666666667,1357.2962062499998,40718.88618749999,40718,1357.2666666666667,1358.8297082499998,40764.891247499996,40764,1358.8,0.2043229504779447,3,1,7,1,1,3,b'HB_5_frameA.png',1359.0340312004778,40771.020936014334,40771,1359.0333333333333
62,1359.04179525,40771.2538575,40771,1359.0333333333333,1359.55843175,40786.7529525,40786,1359.5333333333333,1361.0919434999998,40832.758304999996,40832,1361.0666666666666,0.754648915179132,2,1,2,2,2,3,b'SB_1_frameB.png',1361.846592415179,40855.39777245537,40855,1361.8333333333333
63,1361.8491817499998,40855.475452499995,40855,1361.8333333333333,1362.3490964999999,40870.472895,40870,1362.3333333333333,1363.8827405,40916.482214999996,40916,1363.8666666666666,0.4946139298408525,3,0,6,1,2,2,b'HB_5_frameB_foil.png',1364.3773544298408,40931.32063289522,40931,1364.3666666666666
64,1364.39266875,40931.7800625,40931,1364.3666666666666,1364.942511,40948.27533,40948,1364.9333333333334,1366.47596725,40994.2790175,40994,1366.4666666666667,-0.1658322610601317,1,1,2,2,2,3,b'NB_15_frameB.png',1366.3101349889398,40989.30404966819,40989,1366.3
65,1366.31396525,40989.4189575,40989,1366.3,1366.79724825,41003.917447499996,41003,1366.7666666666667,1368.33085375,41049.925612499996,41049,1368.3,1.9434802164687426,2,0,7,1,2,3,b'SB_2_frameB_foil.png',1370.2743339664687,41108.23001899406,41108,1370.2666666666667
66,1370.280591,41108.41773,41108,1370.2666666666667,1370.81394475,41124.4183425,41124,1370.8,1372.34750225,41170.4250675,41170,1372.3333333333333,1.9447334526048508,1,0,7,1,2,3,b'NB_3_frameA_foil.png',1374.2922357026048,41228.767071078146,41228,1374.2666666666667
67,1374.29955025,41228.9865075,41228,1374.2666666666667,1374.8161587499999,41244.4847625,41244,1374.8,1376.3497065,41290.491194999995,41290,1376.3333333333333,1.208110089355614,1,1,2,2,2,3,b'NB_21_frameB.png',1377.5578165893555,41326.73449768066,41326,1377.5333333333333
68,1377.5620629999999,41326.86188999999,41326,1377.5333333333333,1378.111987,41343.35961,41343,1378.1,1379.64549425,41389.3648275,41389,1379.6333333333334,2.0923885376978433,3,1,7,1,1,3,b'HB_2_frameA.png',1381.7378827876978,41452.13648363094,41452,1381.7333333333333
69,1381.745575,41452.367249999996,41452,1381.7333333333333,1382.27887425,41468.366227499995,41468,1382.2666666666667,1383.81238975,41514.3716925,41514,1383.8,0.2239065255780588,2,1,7,1,1,3,b'SB_2_frameA.png',1384.036296275578,41521.08888826734,41521,1384.0333333333333
70,1384.0517742499999,41521.55322749999,41521,1384.0333333333333,1384.60171475,41538.0514425,41538,1384.6,1386.135178,41584.05534,41584,1386.1333333333334,-0.7912806167514645,2,0,2,2,1,3,b'SB_5_frameB_foil.png',1385.3438973832485,41560.316921497455,41560,1385.3333333333333
71,1385.3573972499998,41560.72191749999,41560,1385.3333333333333,1385.84070525,41575.2211575,41575,1385.8333333333333,1387.3741785,41621.225355,41621,1387.3666666666666,1.9507441190289683,1,0,6,1,2,2,b'NB_20_frameB_foil.png',1389.324922619029,41679.74767857087,41679,1389.3
72,1389.32944625,41679.8833875,41679,1389.3,1389.846085,41695.382549999995,41695,1389.8333333333333,1391.3796794999998,41741.39038499999,41741,1391.3666666666666,2.809173947425734,2,1,7,1,1,3,b'SB_6_frameA.png',1394.1888534474256,41825.66560342276,41825,1394.1666666666667
73,1394.201716,41826.05148,41826,1394.2,1394.685002,41840.55006,41840,1394.6666666666667,1396.2184685,41886.554055,41886,1396.2,0.6817480841709767,1,1,2,2,2,3,b'NB_8_frameA.png',1396.900216584171,41907.00649752513,41907,1396.9
74,1396.90339225,41907.101767500004,41907,1396.9,1397.47005375,41924.1016125,41924,1397.4666666666667,1399.0035907499998,41970.1077225,41970,1399.0,2.352805648763024,1,0,6,1,2,2,b'NB_18_frameB_foil.png',1401.3563963987629,42040.69189196289,42040,1401.3333333333333
75,1401.3633962499998,42040.9018875,42040,1401.3333333333333,1401.86324975,42055.8974925,42055,1401.8333333333333,1403.39682825,42101.9048475,42101,1403.3666666666666,1.2936454013397451,1,0,2,2,1,3,b'NB_27_frameA_foil.png',1404.6904736513397,42140.714209540194,42140,1404.6666666666667
76,1404.7038025,42141.114075,42141,1404.7,1405.1705044999999,42155.115135,42155,1405.1666666666667,1406.7041485,42201.124455,42201,1406.7,2.5195076362942928,2,0,6,1,2,2,b'SB_5_frameA_foil.png',1409.2236561362943,42276.709684088826,42276,1409.2
77,1409.2380577499998,42277.14173249999,42277,1409.2333333333333,1409.70471,42291.1413,42291,1409.7,1411.23819725,42337.1459175,42337,1411.2333333333333,1.8712256204962614,3,0,6,1,2,2,b'HB_5_frameA_foil.png',1413.1094228704962,42393.282686114886,42393,1413.1
78,1413.11666375,42393.4999125,42393,1413.1,1413.65000225,42409.5000675,42409,1413.6333333333334,1415.1835755,42455.507265,42455,1415.1666666666667,1.9603669787175022,2,0,7,1,2,3,b'SB_7_frameB_foil.png',1417.1439424787175,42514.318274361525,42514,1417.1333333333334
79,1417.1469077499999,42514.407232499994,42514,1417.1333333333334,1417.64690225,42529.407067500004,42529,1417.6333333333334,1419.18047575,42575.4142725,42575,1419.1666666666667,2.0776320162258344,1,0,7,1,2,3,b'NB_5_frameA_foil.png',1421.2581077662257,42637.74323298677,42637,1421.2333333333333
80,1421.26924025,42638.0772075,42638,1421.2666666666667,1421.8025834999999,42654.077504999994,42654,1421.8,1423.33631625,42700.0894875,42700,1423.3333333333333,-0.16550585940422025,2,0,7,1,2,3,b'SB_8_frameA_foil.png',1423.1708103905958,42695.124311717875,42695,1423.1666666666667
81,1423.1852279999998,42695.55684,42695,1423.1666666666667,1423.75177325,42712.553197500005,42712,1423.7333333333333,1425.28526575,42758.5579725,42758,1425.2666666666667,2.621388274601486,3,1,3,2,2,2,b'HB_3_frameB.png',1427.9066540246015,42837.19962073804,42837,1427.9
82,1427.9139995,42837.419985,42837,1427.9,1428.48065625,42854.4196875,42854,1428.4666666666667,1430.0142755,42900.428264999995,42900,1430.0,1.221924269470037,1,1,7,1,1,3,b'NB_30_frameA.png',1431.23619976947,42937.085993084096,42937,1431.2333333333333
83,1431.2443349999999,42937.33005,42937,1431.2333333333333,1431.7609575,42952.828725,42952,1431.7333333333333,1433.29464425,42998.8393275,42998,1433.2666666666667,2.124883787939325,3,0,6,1,2,2,b'HB_8_frameA_foil.png',1435.4195280379392,43062.58584113818,43062,1435.4
84,1435.4279295,43062.83788499999,43062,1435.4,1435.994565,43079.83695,43079,1435.9666666666667,1437.5281197499999,43125.843592499994,43125,1437.5,1.048205186103587,2,1,2,2,2,3,b'SB_1_frameA.png',1438.5763249361034,43157.2897480831,43157,1438.5666666666666
85,1438.59440675,43157.8322025,43157,1438.5666666666666,1439.07768475,43172.3305425,43172,1439.0666666666666,1440.611206,43218.33618,43218,1440.6,3.3254597398408805,2,0,6,1,2,2,b'SB_1_frameA_foil.png',1443.936665739841,43318.099972195225,43318,1443.9333333333334
86,1443.94019975,43318.2059925,43318,1443.9333333333334,1444.440281,43333.20843,43333,1444.4333333333334,1445.9737235,43379.211705,43379,1445.9666666666667,2.0834957056649728,2,0,7,1,2,3,b'SB_5_frameB_foil.png',1448.057219205665,43441.71657616995,43441,1448.0333333333333
87,1448.0699782499998,43442.09934749999,43442,1448.0666666666666,1448.6366185,43459.098555,43459,1448.6333333333334,1450.17006075,43505.1018225,43505,1450.1666666666667,1.5749911174643785,3,0,7,1,2,3,b'HB_2_frameB_foil.png',1451.7450518674643,43552.35155602393,43552,1451.7333333333333
88,1451.7529455,43552.588364999996,43552,1451.7333333333333,1452.26961375,43568.0884125,43568,1452.2666666666667,1453.8030737499998,43614.09221249999,43614,1453.8,1.4169364841800416,3,1,7,1,1,3,b'HB_1_frameA.png',1455.2200102341799,43656.600307025394,43656,1455.2
89,1455.2338765,43657.016295,43657,1455.2333333333333,1455.767141,43673.01423,43673,1455.7666666666667,1457.30062875,43719.0188625,43719,1457.3,0.5436257858891622,3,1,6,1,1,2,b'HB_7_frameB.png',1457.8442545358891,43735.327636076676,43735,1457.8333333333333
90,1457.8552519999998,43735.65755999999,43735,1457.8333333333333,1458.405258,43752.15774,43752,1458.4,1459.9386935,43798.160805,43798,1459.9333333333334,0.7819059159519384,2,1,3,2,2,2,b'SB_3_frameA.png',1460.720599415952,43821.61798247856,43821,1460.7
91,1460.73303925,43821.9911775,43821,1460.7,1461.2829124999998,43838.487375,43838,1461.2666666666667,1462.8164689999999,43884.49406999999,43884,1462.8,1.1555731164989993,3,1,2,2,2,3,b'HB_4_frameB.png',1463.9720421164989,43919.16126349496,43919,1463.9666666666667
92,1463.98831525,43919.649457499996,43919,1463.9666666666667,1464.5549185,43936.647555,43936,1464.5333333333333,1466.0883697499999,43982.6510925,43982,1466.0666666666666,0.9179317524612998,2,0,2,2,1,3,b'SB_4_frameA_foil.png',1467.0063015024612,44010.189045073836,44010,1467.0
93,1467.020225,44010.60675,44010,1467.0,1467.5034504999999,44025.103514999995,44025,1467.5,1469.0369147499998,44071.1074425,44071,1469.0333333333333,1.0849763398218784,2,0,6,1,2,2,b'SB_1_frameB_foil.png',1470.1218910898217,44103.65673269465,44103,1470.1
94,1470.1327904999998,44103.983714999995,44103,1470.1,1470.64949475,44119.4848425,44119,1470.6333333333334,1472.183092,44165.49276,44165,1472.1666666666667,1.5413501747025293,3,1,6,1,1,2,b'HB_2_frameA.png',1473.7244421747025,44211.73326524108,44211,1473.7
95,1473.74156075,44212.2468225,44212,1473.7333333333333,1474.24147275,44227.2441825,44227,1474.2333333333333,1475.77491425,44273.2474275,44273,1475.7666666666667,1.7298522894634516,1,0,7,1,2,3,b'NB_17_frameA_foil.png',1477.5047665394634,44325.1429961839,44325,1477.5
96,1477.52245125,44325.6735375,44325,1477.5,1478.0557159999998,44341.67148,44341,1478.0333333333333,1479.58912075,44387.6736225,44387,1479.5666666666666,2.66522792547039,1,1,7,1,1,3,b'NB_7_frameB.png',1482.2543486754703,44467.63046026411,44467,1482.2333333333333
97,1482.2677955,44468.033865,44468,1482.2666666666667,1482.7676525,44483.029575,44483,1482.7666666666667,1484.33845625,44530.1536875,44530,1484.3333333333333,1.3856946453088312,3,0,6,1,2,2,b'HB_1_frameB_foil.png',1485.7241508953089,44571.72452685927,44571,1485.7
98,1485.7314075,44571.942225,44571,1485.7,1486.2313809999998,44586.94142999999,44586,1486.2,1487.76498825,44632.9496475,44632,1487.7333333333333,1.830965310058673,1,1,6,1,1,2,b'NB_1_frameB.png',1489.5959535600587,44687.87860680176,44687,1489.5666666666666
99,1489.6024945,44688.074835,44688,1489.6,1490.11912825,44703.573847499996,44703,1490.1,1491.65300175,44749.590052499996,44749,1491.6333333333334,2.0173180493875407,1,0,2,2,1,3,b'NB_25_frameA_foil.png',1493.6703197993875,44810.10959398162,44810,1493.6666666666667
100,1493.68000025,44810.4000075,44810,1493.6666666666667,1494.24662175,44827.3986525,44827,1494.2333333333333,1495.780295,44873.40885,44873,1495.7666666666667,0.15984029501851182,3,1,2,2,2,3,b'HB_7_frameA.png',1495.9401352950185,44878.204058850555,44878,1495.9333333333334
101,1495.9487542499999,44878.4626275,44878,1495.9333333333334,1496.4154015,44892.462045,44892,1496.4,1497.9490059999998,44938.47018,44938,1497.9333333333334,1.1330837264322327,2,1,5,1,1,1,b'SB_7_frameA.png',1499.082089726432,44972.46269179296,44972,1499.0666666666666
102,1499.09897875,44972.9693625,44972,1499.0666666666666,1499.64892975,44989.4678925,44989,1499.6333333333334,1501.18257475,45035.4772425,45035,1501.1666666666667,0.977864534688706,3,1,2,2,2,3,b'HB_1_frameB.png',1502.1604392846887,45064.81317854066,45064,1502.1333333333334
103,1502.1752815,45065.258445,45065,1502.1666666666667,1502.67519025,45080.2557075,45080,1502.6666666666667,1504.2088449999999,45126.265349999994,45126,1504.2,0.5590631298400695,2,0,6,1,2,2,b'SB_4_frameB_foil.png',1504.76790812984,45143.037243895196,45143,1504.7666666666667
104,1504.7781807499998,45143.345422499995,45143,1504.7666666666667,1505.31139525,45159.3418575,45159,1505.3,1506.84506825,45205.3520475,45205,1506.8333333333333,2.6950083431438543,1,1,6,1,1,2,b'NB_18_frameA.png',1509.5400765931438,45286.20229779431,45286,1509.5333333333333
105,1509.54488275,45286.3464825,45286,1509.5333333333333,1510.04483425,45301.3450275,45301,1510.0333333333333,1511.5784127499999,45347.352382499994,45347,1511.5666666666666,3.0819436180318007,2,0,4,2,1,1,b'SB_2_frameA_foil.png',1514.6603563680317,45439.81069104095,45439,1514.6333333333334
106,1514.6665847499999,45439.997542499994,45439,1514.6333333333334,1515.21656325,45456.4968975,45456,1515.2,1516.7500149999998,45502.50044999999,45502,1516.7333333333333,0.7676737731380854,3,0,6,1,2,2,b'HB_3_frameB_foil.png',1517.517688773138,45525.530663194135,45525,1517.5
107,1517.5279337499999,45525.8380125,45525,1517.5,1518.02779025,45540.8337075,45540,1518.0,1519.561278,45586.838339999995,45586,1519.5333333333333,1.456689984734112,1,1,6,1,1,2,b'NB_9_frameB.png',1521.017967984734,45630.53903954202,45630,1521.0
108,1521.02594525,45630.7783575,45630,1521.0,1521.57593825,45647.2781475,45647,1521.5666666666666,1523.10958775,45693.287632499996,45693,1523.1,2.1168347186612664,1,1,6,1,1,2,b'NB_2_frameA.png',1525.2264224686612,45756.792674059834,45756,1525.2
109,1525.24243475,45757.273042500005,45757,1525.2333333333333,1525.7423657499999,45772.270972499995,45772,1525.7333333333333,1527.2759624999999,45818.278874999996,45818,1527.2666666666667,2.216484938377107,2,0,6,1,2,2,b'SB_3_frameB_foil.png',1529.492447438377,45884.77342315131,45884,1529.4666666666667
110,1529.49700925,45884.9102775,45884,1529.4666666666667,1529.96368725,45898.9106175,45898,1529.9333333333334,1531.497162,45944.91486,45944,1531.4666666666667,1.7151852124952711,2,1,6,1,1,2,b'SB_9_frameB.png',1533.2123472124952,45996.370416374855,45996,1533.2
111,1533.215456,45996.46368,45996,1533.2,1533.6987185,46010.961555,46010,1533.6666666666667,1535.23219925,46056.9659775,46056,1535.2,2.560238759564527,1,0,2,2,1,3,b'NB_7_frameA_foil.png',1537.7924380095644,46133.77314028693,46133,1537.7666666666667
112,1537.805232,46134.15696,46134,1537.8,1538.32187075,46149.656122500004,46149,1538.3,1539.8553904999999,46195.661714999995,46195,1539.8333333333333,2.6861073118416243,2,1,5,1,1,1,b'SB_1_frameB.png',1542.5414978118415,46276.24493435524,46276,1542.5333333333333
113,1542.55627125,46276.6881375,46276,1542.5333333333333,1543.03959225,46291.1877675,46291,1543.0333333333333,1544.5730445,46337.191334999996,46337,1544.5666666666666,2.614214758032176,1,0,6,1,2,2,b'NB_21_frameA_foil.png',1547.187259258032,46415.61777774096,46415,1547.1666666666667
114,1547.1975464999998,46415.926394999995,46415,1547.1666666666667,1547.69754625,46430.926387499996,46430,1547.6666666666667,1549.2310185,46476.930555,46476,1549.2,2.24383121675055,1,0,7,1,2,3,b'NB_13_frameA_foil.png',1551.4748497167504,46544.245491502516,46544,1551.4666666666667
115,1551.48789075,46544.6367225,46544,1551.4666666666667,1552.0378719999999,46561.136159999995,46561,1552.0333333333333,1553.5712987499999,46607.138962499994,46607,1553.5666666666666,0.5913973059432465,2,0,2,2,1,3,b'SB_2_frameB_foil.png',1554.1626960559431,46624.88088167829,46624,1554.1333333333334
116,1554.1724742499998,46625.17422749999,46625,1554.1666666666667,1554.6891242499998,46640.6737275,46640,1554.6666666666667,1556.2226475,46686.679425,46686,1556.2,3.7379225712211337,1,0,3,2,1,2,b'NB_6_frameB_foil.png',1559.9605700712211,46798.817102136636,46798,1559.9333333333334
117,1559.97887575,46799.3662725,46799,1559.9666666666667,1560.49546975,46814.8640925,46814,1560.4666666666667,1562.028955,46860.86865,46860,1562.0,1.968255209554627,3,1,3,2,2,2,b'HB_2_frameA.png',1563.9972102095546,46919.916306286636,46919,1563.9666666666667
118,1564.0084755,46920.254265,46920,1564.0,1564.54176775,46936.2530325,46936,1564.5333333333333,1566.07542225,46982.2626675,46982,1566.0666666666666,1.4315892086160602,2,1,5,1,1,1,b'SB_9_frameA.png',1567.507011458616,47025.21034375848,47025,1567.5
119,1567.5138077499998,47025.41423249999,47025,1567.5,1567.9971174999998,47039.913524999996,47039,1567.9666666666667,1569.5305852499998,47085.9175575,47085,1569.5,0.8512637256426387,1,1,2,2,2,3,b'NB_29_frameB.png',1570.3818489756425,47111.45546926928,47111,1570.3666666666666
120,1570.3884437499999,47111.6533125,47111,1570.3666666666666,1570.9216932499999,47127.6507975,47127,1570.9,1572.455303,47173.65909,47173,1572.4333333333334,1.6218176902548294,3,0,3,2,1,2,b'HB_1_frameA_foil.png',1574.0771206902548,47222.313620707646,47222,1574.0666666666666
121,1574.090233,47222.70699,47222,1574.0666666666666,1574.6402309999999,47239.20692999999,47239,1574.6333333333334,1576.1738867499998,47285.2166025,47285,1576.1666666666667,1.1652918089894229,1,0,2,2,1,3,b'NB_24_frameB_foil.png',1577.3391785589893,47320.17535676968,47320,1577.3333333333333
122,1577.3540235,47320.620705,47320,1577.3333333333333,1577.887295,47336.61885,47336,1577.8666666666666,1579.42080175,47382.6240525,47382,1579.4,1.4773405158266542,2,0,6,1,2,2,b'SB_2_frameB_foil.png',1580.8981422658267,47426.9442679748,47426,1580.8666666666666
123,1580.910312,47427.30936,47427,1580.9,1581.39356325,47441.8068975,47441,1581.3666666666666,1582.927134,47487.81402,47487,1582.9,0.4007795310099027,2,0,2,2,1,3,b'SB_1_frameA_foil.png',1583.32791353101,47499.837405930295,47499,1583.3
124,1583.3346697499999,47500.0400925,47500,1583.3333333333333,1583.817867,47514.536009999996,47514,1583.8,1585.3514317499998,47560.54295249999,47560,1585.3333333333333,1.9953358717393712,1,0,6,1,2,2,b'NB_11_frameA_foil.png',1587.3467676217392,47620.403028652174,47620,1587.3333333333333
125,1587.3575624999999,47620.72687499999,47620,1587.3333333333333,1587.924141,47637.72423,47637,1587.9,1589.4576745,47683.730234999995,47683,1589.4333333333334,1.449736594062415,1,1,7,1,1,3,b'NB_6_frameA.png',1590.9074110940624,47727.22233282187,47727,1590.9
126,1590.9100445,47727.301335,47727,1590.9,1591.409948,47742.29844,47742,1591.4,1592.9434347499998,47788.303042499996,47788,1592.9333333333334,1.9610911796917208,2,1,6,1,1,2,b'SB_2_frameB.png',1594.9045259296915,47847.13577789075,47847,1594.9
127,1594.91772225,47847.5316675,47847,1594.9,1595.4676815,47864.030445000004,47864,1595.4666666666667,1597.00130875,47910.039262499995,47910,1597.0,2.1402182267192984,1,0,4,2,1,1,b'NB_23_frameA_foil.png',1599.1415269767192,47974.245809301574,47974,1599.1333333333334
128,1599.1516775,47974.550325000004,47974,1599.1333333333334,1599.61819675,47988.545902499995,47988,1599.6,1601.15186425,48034.5559275,48034,1601.1333333333334,1.2261080403986853,3,0,7,1,2,3,b'HB_7_frameA_foil.png',1602.3779722903987,48071.33916871196,48071,1602.3666666666666
129,1602.390482,48071.71446,48071,1602.3666666666666,1602.9238027499998,48087.714082499995,48087,1602.9,1604.457412,48133.72236,48133,1604.4333333333334,0.7766550454762182,1,0,5,1,2,1,b'NB_22_frameB_foil.png',1605.2340670454762,48157.022011364286,48157,1605.2333333333333
130,1605.246907,48157.40721,48157,1605.2333333333333,1605.74675875,48172.4027625,48172,1605.7333333333333,1607.280472,48218.41416,48218,1607.2666666666667,0.808882253448246,3,1,3,2,2,2,b'HB_3_frameA.png',1608.0893542534482,48242.68062760345,48242,1608.0666666666666
131,1608.0912704999998,48242.73811499999,48242,1608.0666666666666,1608.607887,48258.23661,48258,1608.6,1610.1416602499999,48304.2498075,48304,1610.1333333333334,1.223844973188534,2,1,2,2,2,3,b'SB_5_frameA.png',1611.3655052231884,48340.96515669565,48340,1611.3333333333333
132,1611.3735582499999,48341.20674749999,48341,1611.3666666666666,1611.906849,48357.20547,48357,1611.9,1613.44046025,48403.2138075,48403,1613.4333333333334,0.8351321114969323,3,0,7,1,2,3,b'HB_4_frameA_foil.png',1614.2755923614968,48428.267770844905,48428,1614.2666666666667
133,1614.28933175,48428.6799525,48428,1614.2666666666667,1614.77258175,48443.1774525,48443,1614.7666666666667,1616.3061559999999,48489.18468,48489,1616.3,1.839125651618815,1,1,5,1,1,1,b'NB_5_frameB.png',1618.1452816516187,48544.35844954856,48544,1618.1333333333334
134,1618.1558885,48544.676654999996,48544,1618.1333333333334,1618.72245525,48561.673657499996,48561,1618.7,1620.25602375,48607.6807125,48607,1620.2333333333333,-0.21235682290716795,3,0,7,1,2,3,b'HB_3_frameB_foil.png',1620.0436669270928,48601.31000781278,48601,1620.0333333333333
135,1620.0575695,48601.727085,48601,1620.0333333333333,1620.524176,48615.72528,48615,1620.5,1622.05785775,48661.735732500005,48661,1622.0333333333333,2.8328577110223705,3,1,7,1,1,3,b'HB_6_frameB.png',1624.8907154610224,48746.721463830676,48746,1624.8666666666666
136,1624.8993672499998,48746.981017499995,48746,1624.8666666666666,1625.39930375,48761.9791125,48761,1625.3666666666666,1626.9329014999998,48807.987044999994,48807,1626.9,2.4056538160293712,1,0,6,1,2,2,b'NB_30_frameB_foil.png',1629.3385553160292,48880.156659480876,48880,1629.3333333333333
137,1629.34540625,48880.3621875,48880,1629.3333333333333,1629.84540625,48895.3621875,48895,1629.8333333333333,1631.3788909999998,48941.366729999994,48941,1631.3666666666666,0.8692897396103945,3,0,7,1,2,3,b'HB_1_frameA_foil.png',1632.2481807396102,48967.445422188306,48967,1632.2333333333333
138,1632.2533087499999,48967.59926249999,48967,1632.2333333333333,1632.7199535,48981.598605,48981,1632.7,1634.2534067499998,49027.6022025,49027,1634.2333333333333,2.467908533188165,2,0,7,1,2,3,b'SB_6_frameB_foil.png',1636.721315283188,49101.63945849564,49101,1636.7
139,1636.7339935,49102.019805,49102,1636.7333333333333,1637.267289,49118.01867,49118,1637.2666666666667,1638.800775,49164.02325,49164,1638.8,1.0430431857021176,1,1,6,1,1,2,b'NB_13_frameB.png',1639.843818185702,49195.31454557106,49195,1639.8333333333333
140,1639.8594767499999,49195.7843025,49195,1639.8333333333333,1640.3595082499999,49210.785247499996,49210,1640.3333333333333,1641.893133,49256.79399,49256,1641.8666666666666,1.5315451854767161,1,1,6,1,1,2,b'NB_20_frameA.png',1643.4246781854768,49302.7403455643,49302,1643.4
141,1643.4421,49303.263,49303,1643.4333333333334,1643.9921295,49319.763885,49319,1643.9666666666667,1645.5256015,49365.768045,49365,1645.5,-0.3953962713276269,3,0,7,1,2,3,b'HB_1_frameA_foil.png',1645.1302052286724,49353.90615686017,49353,1645.1
142,1645.143909,49354.31727,49354,1645.1333333333334,1645.64378025,49369.3134075,49369,1645.6333333333334,1647.17745225,49415.3235675,49415,1647.1666666666667,1.9803502393770032,2,0,3,2,1,2,b'SB_1_frameB_foil.png',1649.157802489377,49474.73407468131,49474,1649.1333333333334
143,1649.1736105,49475.208314999996,49475,1649.1666666666667,1649.673593,49490.20779,49490,1649.6666666666667,1651.20708375,49536.2125125,49536,1651.2,1.365641767231864,3,0,6,1,2,2,b'HB_5_frameB_foil.png',1652.572725517232,49577.18176551696,49577,1652.5666666666666
144,1652.5879725,49577.639175,49577,1652.5666666666666,1653.15452925,49594.6358775,49594,1653.1333333333334,1654.68815225,49640.6445675,49640,1654.6666666666667,2.1626763331878465,3,1,2,2,2,3,b'HB_5_frameB.png',1656.8508285831879,49705.524857495635,49705,1656.8333333333333
145,1656.8606129999998,49705.81838999999,49705,1656.8333333333333,1657.37727,49721.3181,49721,1657.3666666666666,1658.910973,49767.329190000004,49767,1658.9,0.3044301559275482,1,0,3,2,1,2,b'NB_16_frameB_foil.png',1659.2154031559276,49776.46209467783,49776,1659.2
146,1659.2220412499998,49776.6612375,49776,1659.2,1659.7386857499998,49792.1605725,49792,1659.7333333333333,1661.322314,49839.66942,49839,1661.3,0.9054156421989319,2,1,5,1,1,1,b'SB_1_frameB.png',1662.227729642199,49866.831889265966,49866,1662.2
147,1662.23199325,49866.9597975,49866,1662.2,1662.76513175,49882.9539525,49882,1662.7333333333333,1664.2986012499998,49928.95803749999,49928,1664.2666666666667,2.6021331371812266,2,1,3,2,2,2,b'SB_6_frameB.png',1666.900734387181,50007.02203161543,50007,1666.9
148,1666.91895,50007.5685,50007,1666.9,1667.4521215,50023.563645,50023,1667.4333333333334,1668.9856647499998,50069.5699425,50069,1668.9666666666667,0.9475186828349251,3,0,7,1,2,3,b'HB_1_frameA_foil.png',1669.9331834328348,50097.995502985046,50097,1669.9
149,1669.94639975,50098.3919925,50098,1669.9333333333334,1670.51291975,50115.3875925,50115,1670.5,1672.04638325,50161.3914975,50161,1672.0333333333333,1.4552530614600983,3,0,7,1,2,3,b'HB_2_frameB_foil.png',1673.50163631146,50205.049089343804,50205,1673.5
150,1673.51817025,50205.545107499995,50205,1673.5,1674.001345,50220.040349999996,50220,1674.0,1675.5348192499998,50266.0445775,50266,1675.5333333333333,1.7665016762257437,3,0,6,1,2,2,b'HB_6_frameB_foil.png',1677.3013209262256,50319.03962778677,50319,1677.3
151,1677.3078165,50319.234495,50319,1677.3,1677.8077079999998,50334.231239999994,50334,1677.8,1679.34114525,50380.2343575,50380,1679.3333333333333,1.1719493884083931,1,0,4,2,1,1,b'NB_26_frameB_foil.png',1680.5130946384083,50415.39283915225,50415,1680.5
152,1680.5224397499999,50415.6731925,50415,1680.5,1681.0057132499999,50430.171397499995,50430,1681.0,1682.5392742499998,50476.17822749999,50476,1682.5333333333333,2.004000190849183,1,1,5,1,1,1,b'NB_10_frameA.png',1684.543274440849,50536.29823322547,50536,1684.5333333333333
153,1684.56070475,50536.8211425,50536,1684.5333333333333,1685.12730475,50553.8191425,50553,1685.1,1686.660834,50599.825020000004,50599,1686.6333333333334,1.7557832332022372,3,0,6,1,2,2,b'HB_4_frameB_foil.png',1688.4166172332023,50652.49851699607,50652,1688.4
154,1688.4253915,50652.761744999996,50652,1688.4,1688.891991,50666.75973,50666,1688.8666666666666,1690.42561775,50712.7685325,50712,1690.4,2.372482043232594,2,0,2,2,1,3,b'SB_6_frameA_foil.png',1692.7980997932325,50783.942993796976,50783,1692.7666666666667
155,1692.8139985,50784.419955,50784,1692.8,1693.31390175,50799.4170525,50799,1693.3,1694.8475185,50845.425555,50845,1694.8333333333333,2.635203190642642,3,0,7,1,2,3,b'HB_9_frameA_foil.png',1697.4827216906426,50924.48165071928,50924,1697.4666666666667
156,1697.4970724999998,50924.912175,50924,1697.4666666666667,1698.0136845,50940.410534999995,50940,1698.0,1699.547414,50986.422419999995,50986,1699.5333333333333,2.1551208907330874,2,1,5,1,1,1,b'SB_1_frameA.png',1701.702534890733,51051.07604672199,51051,1701.7
157,1701.7196642499998,51051.5899275,51051,1701.7,1702.2696405,51068.089215,51068,1702.2666666666667,1703.8030995,51114.092984999996,51114,1703.8,2.133155063558661,2,1,4,2,2,1,b'SB_4_frameA.png',1705.9362545635586,51178.087636906756,51178,1705.9333333333334
158,1705.9393182499998,51178.179547499996,51178,1705.9333333333334,1706.4559625,51193.678875,51193,1706.4333333333334,1707.98956525,51239.6869575,51239,1707.9666666666667,1.0664432721750927,2,1,2,2,2,3,b'SB_1_frameA.png',1709.056008522175,51271.680255665255,51271,1709.0333333333333
159,1709.07364825,51272.2094475,51272,1709.0666666666666,1709.57364175,51287.2092525,51287,1709.5666666666666,1711.107163,51333.214889999996,51333,1711.1,0.42726096270780545,3,1,7,1,1,3,b'HB_1_frameB.png',1711.5344239627077,51346.03271888123,51346,1711.5333333333333
160,1711.5463304999998,51346.38991499999,51346,1711.5333333333333,1712.0128105,51360.384314999996,51360,1712.0,1713.5462512499998,51406.38753749999,51406,1713.5333333333333,2.725333538794075,1,1,2,2,2,3,b'NB_12_frameA.png',1716.271584788794,51488.147543663814,51488,1716.2666666666667
161,1716.279121,51488.37363,51488,1716.2666666666667,1716.812576,51504.37728,51504,1716.8,1718.34588025,51550.3764075,51550,1718.3333333333333,0.14813282791874371,2,0,2,2,1,3,b'SB_2_frameA_foil.png',1718.4940130779187,51554.82039233756,51554,1718.4666666666667
162,1718.5009129999999,51555.027389999996,51555,1718.5,1719.05089725,51571.5269175,51571,1719.0333333333333,1720.58444425,51617.5333275,51617,1720.5666666666666,2.7300761750957463,3,0,3,2,1,2,b'HB_6_frameA_foil.png',1723.3145204250957,51699.43561275287,51699,1723.3
163,1723.32056575,51699.6169725,51699,1723.3,1723.83739025,51715.1217075,51715,1723.8333333333333,1725.37077875,51761.1233625,51761,1725.3666666666666,2.907590898539638,3,1,7,1,1,3,b'HB_4_frameA.png',1728.2783696485396,51848.35108945619,51848,1728.2666666666667
164,1728.2844074999998,51848.532224999995,51848,1728.2666666666667,1728.76761475,51863.0284425,51863,1728.7666666666667,1730.3012502499998,51909.0375075,51909,1730.3,2.6974359662854113,1,1,6,1,1,2,b'NB_11_frameB.png',1732.9986862162853,51989.96058648856,51989,1732.9666666666667
165,1733.00880175,51990.2640525,51990,1733.0,1733.54210225,52006.2630675,52006,1733.5333333333333,1735.0755952499999,52052.267857499995,52052,1735.0666666666666,2.143865118501708,3,1,2,2,2,3,b'HB_6_frameA.png',1737.2194603685016,52116.58381105505,52116,1737.2
166,1737.2283275,52116.849825,52116,1737.2,1737.77827325,52133.3481975,52133,1737.7666666666667,1739.31185825,52179.3557475,52179,1739.3,0.9161608355861972,3,1,7,1,1,3,b'HB_8_frameB.png',1740.228019085586,52206.840572567584,52206,1740.2
167,1740.24113675,52207.2341025,52207,1740.2333333333333,1740.77443925,52223.2331775,52223,1740.7666666666667,1742.3080157499999,52269.240472499994,52269,1742.3,1.954871340909449,2,0,6,1,2,2,b'SB_4_frameA_foil.png',1744.2628870909093,52327.88661272728,52327,1744.2333333333333
168,1744.2668709999998,52328.006129999994,52328,1744.2666666666667,1744.7335575,52342.006725,52342,1744.7333333333333,1746.26719175,52388.015752499996,52388,1746.2666666666667,2.1358250996563584,2,1,7,1,1,3,b'SB_4_frameB.png',1748.4030168496563,52452.09050548969,52452,1748.4
169,1748.4135649999998,52452.40695,52452,1748.4,1748.9467727499998,52468.40318249999,52468,1748.9333333333334,1750.48050425,52514.4151275,52514,1750.4666666666667,1.9686510892934166,1,0,7,1,2,3,b'NB_15_frameA_foil.png',1752.4491553392934,52573.4746601788,52573,1752.4333333333334
170,1752.45082375,52573.524712499995,52573,1752.4333333333334,1752.9175675,52587.527024999996,52587,1752.9,1754.4510592499998,52633.53177749999,52633,1754.4333333333334,0.6677439435734414,3,1,6,1,1,2,b'HB_9_frameB.png',1755.1188031935733,52653.564095807196,52653,1755.1
171,1755.162658,52654.87974,52654,1755.1333333333334,1755.6959415,52670.878245,52670,1755.6666666666667,1757.2294769999999,52716.884309999994,52716,1757.2,1.280702637443028,3,1,7,1,1,3,b'HB_5_frameA.png',1758.510179637443,52755.305389123285,52755,1758.5
172,1758.523463,52755.70389,52755,1758.5,1759.07347125,52772.2041375,52772,1759.0666666666666,1760.60694075,52818.2082225,52818,1760.6,2.2454425657342654,2,0,4,2,1,1,b'SB_8_frameB_foil.png',1762.8523833157342,52885.571499472026,52885,1762.8333333333333
173,1762.85703425,52885.7110275,52885,1762.8333333333333,1763.35703225,52900.710967499996,52900,1763.3333333333333,1764.89075125,52946.7225375,52946,1764.8666666666666,1.3257529744223575,3,0,6,1,2,2,b'HB_3_frameA_foil.png',1766.2165042244224,52986.49512673267,52986,1766.2
174,1766.222781,52986.68343,52986,1766.2,1766.77276025,53003.182807499994,53003,1766.7666666666667,1768.306187,53049.18561,53049,1768.3,1.9300863165553892,3,0,6,1,2,2,b'HB_6_frameB_foil.png',1770.2362733165553,53107.08819949666,53107,1770.2333333333333
175,1770.25386325,53107.6158975,53107,1770.2333333333333,1770.75383075,53122.6149225,53122,1770.7333333333333,1772.287322,53168.61966,53168,1772.2666666666667,0.5042412476468598,2,0,6,1,2,2,b'SB_7_frameA_foil.png',1772.7915632476468,53183.7468974294,53183,1772.7666666666667
176,1772.8057602499998,53184.17280749999,53184,1772.8,1773.288998,53198.66994,53198,1773.2666666666667,1774.82252225,53244.6756675,53244,1774.8,1.339849711919669,1,0,6,1,2,2,b'NB_29_frameA_foil.png',1776.1623719619197,53284.87115885759,53284,1776.1333333333334
177,1776.226931,53286.807929999995,53286,1776.2,1776.74822825,53302.4468475,53302,1776.7333333333333,1778.246688,53347.40064,53347,1778.2333333333333,0.8968751114298357,2,1,2,2,2,3,b'SB_30_frameA.png',1779.1435631114298,53374.306893342895,53374,1779.1333333333334
178,1779.1569527499998,53374.708582499996,53374,1779.1333333333334,1779.774035,53393.22105,53393,1779.7666666666667,1781.2778202499999,53438.33460749999,53438,1781.2666666666667,2.0719820673548384,2,0,3,2,1,2,b'SB_30_frameB_foil.png',1783.3498023173547,53500.49406952064,53500,1783.3333333333333
179,1783.399934,53501.99802,53501,1783.3666666666666,1783.92482825,53517.7448475,53517,1783.9,1785.444194,53563.32582,53563,1785.4333333333334,2.4705956520483596,3,1,3,2,2,2,b'HB_30_frameB.png',1787.9147896520483,53637.44368956145,53637,1787.9
180,1787.983471,53639.50413,53639,1787.9666666666667,1788.5140995,53655.422985,53655,1788.5,1790.0622752499999,53701.8682575,53701,1790.0333333333333,2.492582966959162,3,0,5,1,2,1,b'HB_30_frameA_foil.png',1792.554858216959,53776.64574650877,53776,1792.5333333333333
