trial_num,fixcross_time,fixation_HZ,fixation_bin,fixation_regarded,start_time,Fstart_HZ,Fstart_bin,Fstart_regarded,stop_time,Fstop_HZ,Fstop_bin,Fstop_regarded,RT,boundary_type,key,resp_value,leftright,accuracy,confidence,frameName,response_time,response_HZ,response_bin,response_regarded
1,2064.00793275,61920.237982499995,61920,2064.0,2064.650078,61939.50234000001,61939,2064.633333333333,2066.704143,62001.12429,62001,2066.7,2.171617862477433,3,2,3,1,1.0,2.0,b'HB_7_ShortA.png',2068.8757608624774,62066.27282587432,62066,2068.866666666667
2,2068.9051735,62067.155204999995,62067,2068.9,2069.4670775,62084.012324999996,62084,2069.4666666666667,2071.4982689999997,62144.94806999999,62144,2071.4666666666667,2.1704792989767157,2,1,3,1,2.0,2.0,b'SB_41_LongA.png',2073.6687482989764,62210.06244896929,62210,2073.6666666666665
3,2073.69100175,62210.730052499996,62210,2073.6666666666665,2074.2930042499997,62228.79012749999,62228,2074.266666666667,2076.32476125,62289.7428375,62289,2076.3,0.8586393989535281,1,2,6,2,2.0,2.0,b'NB_23_LongA.png',2077.1834006489535,62315.50201946861,62315,2077.1666666666665
4,2077.2040145,62316.120435000004,62316,2077.2,2077.78588675,62333.5766025,62333,2077.766666666667,2079.817338,62394.52013999999,62394,2079.8,3.0202348631137284,3,1,6,2,1.0,2.0,b'HB_58_LongA.png',2082.8375728631136,62485.127185893405,62485,2082.8333333333335
5,2082.847001,62485.41003,62485,2082.8333333333335,2083.4292015,62502.876045000005,62502,2083.4,2085.4840925,62564.522775,62564,2085.4666666666667,0.370971687239944,3,1,5,2,1.0,1.0,b'HB_51_LongA.png',2085.85506418724,62575.651925617196,62575,2085.8333333333335
6,2085.892789,62576.78367,62576,2085.866666666667,2086.51481575,62595.44447249999,62595,2086.5,2088.5457195,62656.371585,62656,2088.5333333333333,2.353904881354538,3,2,4,1,1.0,1.0,b'HB_13_ShortA.png',2090.8996243813544,62726.98873144064,62726,2090.866666666667
7,2090.9228452499997,62727.68535749999,62727,2090.9,2091.52493425,62745.748027500005,62745,2091.5,2093.55644,62806.693199999994,62806,2093.5333333333333,2.3178272195509635,3,2,3,1,1.0,2.0,b'HB_46_LongA.png',2095.874267219551,62876.22801658652,62876,2095.866666666667
8,2095.89837725,62876.9513175,62876,2095.866666666667,2096.46006725,62893.8020175,62893,2096.4333333333334,2098.49156625,62954.746987499995,62954,2098.4666666666667,1.0024014304653974,2,2,6,2,2.0,2.0,b'SB_39_LongA.png',2099.493967680465,62984.81903041396,62984,2099.4666666666667
9,2099.50669975,62985.200992499995,62985,2099.5,2100.12849325,63003.8547975,63003,2100.1,2102.1599969999997,63064.799909999994,63064,2102.133333333333,0.5563854671490844,2,2,6,2,2.0,2.0,b'SB_37_ShortA.png',2102.716382467149,63081.49147401447,63081,2102.7
10,2102.72413875,63081.724162499995,63081,2102.7,2103.3662925,63100.988775,63100,2103.3333333333335,2105.3969887499998,63161.909662499995,63161,2105.366666666667,0.7754667113331379,2,2,6,2,2.0,2.0,b'SB_15_ShortA.png',2106.172455461333,63185.17366383999,63185,2106.1666666666665
11,2106.1955387499997,63185.866162499995,63185,2106.1666666666665,2106.79744975,63203.9234925,63203,2106.766666666667,2108.82913725,63264.874117499996,63264,2108.8,2.881350084746373,3,2,3,1,1.0,2.0,b'HB_5_LongA.png',2111.710487334746,63351.31462004239,63351,2111.7
12,2111.719348,63351.580440000005,63351,2111.7,2112.3211935,63369.635805,63369,2112.3,2114.3526859999997,63430.580579999994,63430,2114.3333333333335,2.033137304155389,1,2,5,2,2.0,1.0,b'NB_30_ShortA.png',2116.385823304155,63491.574699124656,63491,2116.366666666667
13,2116.39081575,63491.7244725,63491,2116.366666666667,2116.97278825,63509.1836475,63509,2116.9666666666667,2119.004276,63570.128280000004,63570,2119.0,2.7921912148885895,1,1,3,1,2.0,2.0,b'NB_12_ShortA.png',2121.7964672148887,63653.89401644666,63653,2121.766666666667
14,2121.81550425,63654.46512749999,63654,2121.8,2122.4177179999997,63672.53153999999,63672,2122.4,2124.4484617499998,63733.453852499995,63733,2124.4333333333334,1.4726551198982634,2,2,6,2,2.0,2.0,b'SB_31_LongA.png',2125.921116869898,63777.63350609694,63777,2125.9
15,2125.9413569999997,63778.24070999999,63778,2125.9333333333334,2126.5433755,63796.301264999995,63796,2126.5333333333333,2128.574066,63857.22198,63857,2128.5666666666666,0.4959305872907862,2,2,6,2,2.0,2.0,b'SB_55_LongA.png',2129.069996587291,63872.099897618726,63872,2129.0666666666666
16,2129.09050425,63872.71512749999,63872,2129.0666666666666,2129.7124105,63891.37231499999,63891,2129.7,2131.7437797499997,63952.31339249999,63952,2131.733333333333,1.3176104080921505,1,1,3,1,2.0,2.0,b'NB_11_ShortA.png',2133.061390158092,63991.84170474276,63991,2133.0333333333333
17,2133.0698804999997,63992.09641499999,63992,2133.0666666666666,2133.67173825,64010.152147500005,64010,2133.6666666666665,2135.70322575,64071.0967725,64071,2135.7,-1.0675376198632875,1,2,6,2,2.0,2.0,b'NB_21_LongA.png',2134.6356881301367,64039.0706439041,64039,2134.633333333333
18,2134.650812,64039.524359999996,64039,2134.633333333333,2135.2727422499997,64058.18226749999,64058,2135.266666666667,2137.30418225,64119.125467499995,64119,2137.3,1.0591169190593064,1,1,4,1,2.0,1.0,b'NB_20_ShortA.png',2138.3632991690592,64150.898975071774,64150,2138.3333333333335
19,2138.3797274999997,64151.39182499999,64151,2138.366666666667,2139.00185175,64170.055552499995,64170,2139.0,2141.03316675,64230.9950025,64230,2141.0,1.5965405387396459,3,1,6,2,1.0,2.0,b'HB_26_LongA.png',2142.6297072887396,64278.89121866219,64278,2142.6
20,2142.6533357499998,64279.60007249999,64279,2142.633333333333,2143.2956812499997,64298.870437499994,64298,2143.266666666667,2145.32698675,64359.8096025,64359,2145.3,0.7187524683977244,3,1,6,2,1.0,2.0,b'HB_45_LongA.png',2146.0457392183976,64381.37217655193,64381,2146.0333333333333
21,2146.0675969999998,64382.02790999999,64382,2146.0666666666666,2146.7298272499997,64401.89481749999,64401,2146.7,2148.76054225,64462.816267500006,64462,2148.733333333333,0.3035327895049704,2,2,6,2,2.0,2.0,b'SB_29_ShortA.png',2149.064075039505,64471.922251185155,64471,2149.0333333333333
22,2149.07659625,64472.2978875,64472,2149.0666666666666,2149.69868825,64490.960647500004,64490,2149.6666666666665,2151.7301675,64551.905025,64551,2151.7,0.0644291420612717,1,1,3,1,2.0,2.0,b'NB_4_ShortA.png',2151.794596642061,64553.83789926184,64553,2151.766666666667
23,2151.8118925,64554.35677499999,64554,2151.8,2152.39381275,64571.8143825,64571,2152.366666666667,2154.425186,64632.75558,64632,2154.4,0.335091853630729,2,1,3,1,2.0,2.0,b'SB_26_ShortA.png',2154.7602778536307,64642.80833560892,64642,2154.733333333333
24,2154.76610475,64642.9831425,64642,2154.733333333333,2155.4081887499997,64662.24566249999,64662,2155.4,2157.4397255,64723.191764999996,64723,2157.4333333333334,1.953304037990165,1,2,6,2,2.0,2.0,b'NB_29_ShortA.png',2159.39302953799,64781.7908861397,64781,2159.366666666667
25,2159.413654,64782.40962,64782,2159.4,2160.05592675,64801.677802499995,64801,2160.0333333333333,2162.08683225,64862.6049675,64862,2162.0666666666666,1.278231909571332,3,1,6,2,1.0,2.0,b'HB_55_ShortA.png',2163.3650641595714,64900.95192478714,64900,2163.3333333333335
26,2163.38142425,64901.44272749999,64901,2163.366666666667,2164.00358875,64920.1076625,64920,2164.0,2166.034863,64981.045889999994,64981,2166.0333333333333,1.4431763684697216,3,2,3,1,1.0,2.0,b'HB_37_ShortA.png',2167.4780393684696,65024.341181054086,65024,2167.4666666666667
27,2167.495324,65024.85972,65024,2167.4666666666667,2168.097205,65042.916150000005,65042,2168.0666666666666,2170.1287562499997,65103.86268749999,65103,2170.1,1.2582969924405916,1,2,6,2,2.0,2.0,b'NB_11_LongA.png',2171.3870532424403,65141.61159727321,65141,2171.366666666667
28,2171.40672925,65142.201877499996,65142,2171.4,2171.9885114999997,65159.65534499999,65159,2171.9666666666667,2174.01999625,65220.5998875,65220,2174.0,1.6174566421250347,3,2,3,1,1.0,2.0,b'HB_21_ShortA.png',2175.637452892125,65269.12358676375,65269,2175.633333333333
29,2175.65314325,65269.5942975,65269,2175.633333333333,2176.23512125,65287.053637499994,65287,2176.233333333333,2178.2658545,65347.975634999995,65347,2178.233333333333,1.7125862981192768,3,2,6,2,2.0,2.0,b'HB_22_ShortA.png',2179.978440798119,65399.35322394357,65399,2179.9666666666667
30,2179.9981132499997,65399.94339749999,65399,2179.9666666666667,2180.6202237499997,65418.60671249999,65418,2180.6,2182.6516564999997,65479.549694999994,65479,2182.633333333333,2.418825805594679,1,1,3,1,2.0,2.0,b'NB_23_ShortA.png',2185.0704823055944,65552.11446916783,65552,2185.0666666666666
31,2185.083536,65552.50608,65552,2185.0666666666666,2185.7256872499997,65571.77061749999,65571,2185.7,2187.75657625,65632.69728749999,65632,2187.733333333333,1.7579806657304289,2,1,3,1,2.0,2.0,b'SB_9_LongA.png',2189.5145569157303,65685.4367074719,65685,2189.5
32,2189.52627975,65685.78839249999,65685,2189.5,2190.14838475,65704.4515425,65704,2190.133333333333,2192.179074,65765.37222,65765,2192.1666666666665,-0.051945864368462935,2,2,6,2,2.0,2.0,b'SB_38_ShortA.png',2192.1271281356317,65763.81384406895,65763,2192.1
33,2192.14624875,65764.38746249999,65764,2192.133333333333,2192.788387,65783.65161,65783,2192.766666666667,2194.81973375,65844.5920125,65844,2194.8,0.34957748840679415,1,1,3,1,2.0,2.0,b'NB_13_LongA.png',2195.169311238407,65855.0793371522,65855,2195.1666666666665
34,2195.1785207499997,65855.35562249999,65855,2195.1666666666665,2195.76049,65872.8147,65872,2195.733333333333,2197.79181075,65933.7543225,65933,2197.766666666667,2.5235616698191734,1,2,6,2,2.0,2.0,b'NB_16_ShortA.png',2200.315372419819,66009.46117259457,66009,2200.3
35,2200.33167125,66009.9501375,66009,2200.3,2200.95357975,66028.6073925,66028,2200.9333333333334,2202.9850739999997,66089.55222,66089,2202.9666666666667,0.20170074825000484,1,1,3,1,2.0,2.0,b'NB_10_ShortA.png',2203.1867747482497,66095.6032424475,66095,2203.1666666666665
36,2203.2091567499997,66096.27470249998,66096,2203.2,2203.790955,66113.72865,66113,2203.766666666667,2205.82236225,66174.6708675,66174,2205.8,2.114591845922405,3,1,6,2,1.0,2.0,b'HB_60_ShortA.png',2207.9369540959224,66238.10862287767,66238,2207.9333333333334
37,2207.96170025,66238.8510075,66238,2207.9333333333334,2208.5637225,66256.911675,66256,2208.5333333333333,2210.595203,66317.85609,66317,2210.5666666666666,3.7052579862211132,3,2,3,1,1.0,2.0,b'HB_12_LongA.png',2214.300460986221,66429.01382958663,66429,2214.3
38,2214.3087155,66429.26146499999,66429,2214.3,2214.890656,66446.71968,66446,2214.866666666667,2216.922148,66507.66444000001,66507,2216.9,1.7885992547235219,2,1,3,1,2.0,2.0,b'SB_60_LongA.png',2218.7107472547236,66561.32241764171,66561,2218.7
39,2218.72264275,66561.6792825,66561,2218.7,2219.364667,66580.94000999999,66580,2219.3333333333335,2221.395493,66641.86478999999,66641,2221.366666666667,2.884059277799679,1,1,3,1,2.0,2.0,b'NB_4_LongA.png',2224.2795522777997,66728.38656833398,66728,2224.266666666667
40,2224.2953555,66728.860665,66728,2224.266666666667,2224.91780575,66747.53417249999,66747,2224.9,2226.94834125,66808.4502375,66808,2226.9333333333334,1.5471500671555987,1,1,4,1,2.0,1.0,b'NB_7_ShortA.png',2228.4954913171555,66854.86473951467,66854,2228.4666666666667
41,2228.51736075,66855.5208225,66855,2228.5,2229.13928825,66874.1786475,66874,2229.133333333333,2231.1707834999997,66935.123505,66935,2231.1666666666665,1.7386514339013956,2,2,6,2,2.0,2.0,b'SB_7_LongA.png',2232.909434933901,66987.28304801704,66987,2232.9
42,2232.9233154999997,66987.699465,66987,2232.9,2233.5453804999997,67006.36141499999,67006,2233.5333333333333,2235.576739,67067.30217000001,67067,2235.5666666666666,1.1763012478477322,3,1,3,1,2.0,2.0,b'HB_47_LongA.png',2236.753040247848,67102.59120743544,67102,2236.733333333333
43,2236.7732969999997,67103.19890999999,67103,2236.766666666667,2237.35527275,67120.6581825,67120,2237.3333333333335,2239.386531,67181.59593000001,67181,2239.366666666667,0.6633890840312233,2,2,6,2,2.0,2.0,b'SB_24_LongA.png',2240.0499200840313,67201.49760252095,67201,2240.0333333333333
44,2240.06359975,67201.9079925,67201,2240.0333333333333,2240.705942,67221.17826,67221,2240.7,2242.73742175,67282.1226525,67282,2242.733333333333,0.7433106416719966,2,1,3,1,2.0,2.0,b'SB_22_LongA.png',2243.480732391672,67304.42197175015,67304,2243.4666666666667
45,2243.4907175,67304.721525,67304,2243.4666666666667,2244.11295625,67323.3886875,67323,2244.1,2246.14355675,67384.30670249999,67384,2246.133333333333,1.3214767202734947,3,1,4,1,2.0,1.0,b'HB_28_LongA.png',2247.4650334702733,67423.9510041082,67423,2247.4333333333334
46,2247.4860894999997,67424.58268499999,67424,2247.4666666666667,2248.1481705,67444.44511500001,67444,2248.133333333333,2250.179643,67505.38928999999,67505,2250.1666666666665,2.5633263647468993,1,2,6,2,2.0,2.0,b'NB_1_ShortA.png',2252.742969364747,67582.2890809424,67582,2252.733333333333
47,2252.763459,67582.90376999999,67582,2252.733333333333,2253.36534575,67600.9603725,67600,2253.3333333333335,2255.396246,67661.88738,67661,2255.366666666667,1.0101849403145025,2,1,3,1,2.0,2.0,b'SB_51_ShortA.png',2256.4064309403143,67692.19292820944,67692,2256.4
48,2256.41955225,67692.5865675,67692,2256.4,2256.98130025,67709.4390075,67709,2256.9666666666667,2259.0127709999997,67770.38312999999,67770,2259.0,-0.06408670777454972,1,2,6,2,2.0,2.0,b'NB_10_LongA.png',2258.948684292225,67768.46052876675,67768,2258.9333333333334
49,2258.96910275,67769.07308249999,67769,2258.9666666666667,2259.61123775,67788.33713249999,67788,2259.6,2261.6419929999997,67849.25979,67849,2261.633333333333,3.4049378893105313,3,1,6,2,1.0,2.0,b'HB_6_ShortA.png',2265.0469308893103,67951.40792667931,67951,2265.0333333333333
50,2265.07079575,67952.1238725,67952,2265.0666666666666,2265.6927255,67970.781765,67970,2265.6666666666665,2267.72361,68031.7083,68031,2267.7,0.9674514058424393,2,2,5,2,2.0,1.0,b'SB_17_ShortA.png',2268.6910614058424,68060.73184217527,68060,2268.6666666666665
51,2268.7077165,68061.231495,68061,2268.7,2269.3098805,68079.296415,68079,2269.3,2271.34105125,68140.2315375,68140,2271.3333333333335,2.0467143415589817,2,1,3,1,2.0,2.0,b'SB_3_ShortA.png',2273.387765591559,68201.63296774677,68201,2273.366666666667
52,2273.41003475,68202.3010425,68202,2273.4,2274.05220225,68221.5660675,68221,2274.0333333333333,2276.08293,68282.48790000001,68282,2276.0666666666666,1.3267032283183653,2,1,3,1,2.0,2.0,b'SB_35_shortA.png',2277.4096332283184,68322.28899684956,68322,2277.4
53,2277.419159,68322.57477,68322,2277.4,2278.0210294999997,68340.63088499999,68340,2278.0,2280.05182725,68401.5548175,68401,2280.0333333333333,2.232783734842087,1,2,6,2,2.0,2.0,b'NB_28_LongA.png',2282.284610984842,68468.53832954526,68468,2282.266666666667
54,2282.3021759999997,68469.06528,68469,2282.3,2282.88402625,68486.52078749999,68486,2282.866666666667,2284.9155984999998,68547.467955,68547,2284.9,0.7711369031458162,1,2,6,2,2.0,2.0,b'NB_28_ShortA.png',2285.6867354031456,68570.60206209437,68570,2285.6666666666665
55,2285.703544,68571.10631999999,68571,2285.7,2286.3454925,68590.36477500001,68590,2286.3333333333335,2288.37637775,68651.2913325,68651,2288.366666666667,-0.17579802454565652,1,2,6,2,2.0,2.0,b'NB_17_ShortA.png',2288.200579725454,68646.01739176363,68646,2288.2
56,2288.2250774999998,68646.752325,68646,2288.2,2288.80702625,68664.21078750001,68664,2288.8,2290.8377295,68725.131885,68725,2290.8333333333335,4.018825962484698,3,2,5,2,2.0,1.0,b'HB_40_LongA.png',2294.8565554624847,68845.69666387454,68845,2294.8333333333335
57,2294.8653145,68845.959435,68845,2294.8333333333335,2295.46745925,68864.0237775,68864,2295.4666666666667,2297.498945,68924.96835,68924,2297.4666666666667,0.8119867882778635,2,2,6,2,2.0,2.0,b'SB_20_LongA.png',2298.3109317882777,68949.32795364833,68949,2298.3
58,2298.334562,68950.03686,68950,2298.3333333333335,2298.9967845,68969.903535,68969,2298.9666666666667,2301.0280865,69030.842595,69030,2301.0,2.6323658837063704,1,1,3,1,2.0,2.0,b'NB_14_ShortA.png',2303.6604523837063,69109.81357151119,69109,2303.633333333333
59,2303.676844,69110.30532,69110,2303.6666666666665,2304.2787399999997,69128.36219999999,69128,2304.266666666667,2306.31022675,69189.3068025,69189,2306.3,1.7789026106329402,1,1,2,1,2.0,3.0,b'NB_21_ShortA.png',2308.089129360633,69242.67388081898,69242,2308.0666666666666
60,2308.1127644999997,69243.38293499999,69243,2308.1,2308.77527375,69263.2582125,69263,2308.766666666667,2310.8062285,69324.186855,69324,2310.8,1.7976114187040366,2,2,6,2,2.0,2.0,b'SB_11_LongA.png',2312.603839918704,69378.11519756113,69378,2312.6
61,2312.62534225,69378.7602675,69378,2312.6,2313.22756825,69396.8270475,69396,2313.2,2315.258882,69457.76646,69457,2315.233333333333,1.265383854333777,3,2,3,1,1.0,2.0,b'HB_49_ShortA.png',2316.524265854334,69495.72797563001,69495,2316.5
62,2316.53036375,69495.9109125,69495,2316.5,2317.11214425,69513.36432749999,69513,2317.1,2319.14316125,69574.2948375,69574,2319.133333333333,1.2085782156937057,1,1,2,1,2.0,3.0,b'NB_15_ShortA.png',2320.3517394656938,69610.55218397081,69610,2320.3333333333335
63,2320.3583507499998,69610.75052249999,69610,2320.3333333333335,2321.0204015,69630.612045,69630,2321.0,2323.0518745,69691.556235,69691,2323.0333333333333,1.5958049771434162,1,1,2,1,2.0,3.0,b'NB_15_LongA.png',2324.6476794771434,69739.4303843143,69739,2324.633333333333
64,2324.65438525,69739.63155749999,69739,2324.633333333333,2325.27678975,69758.30369249999,69758,2325.266666666667,2327.307359,69819.22077,69819,2327.3,2.143481337989215,2,2,6,2,2.0,2.0,b'SB_5_ShortA.png',2329.450840337989,69883.52521013968,69883,2329.4333333333334
65,2329.4695155,69884.085465,69884,2329.4666666666667,2330.051486,69901.54458,69901,2330.0333333333333,2332.08275225,69962.4825675,69962,2332.0666666666666,0.17645330593222752,2,2,6,2,2.0,2.0,b'SB_36_ShortA.png',2332.259205555932,69967.77616667797,69967,2332.233333333333
66,2332.2650652499997,69967.95195749999,69967,2332.233333333333,2332.826929,69984.80786999999,69984,2332.8,2334.858366,70045.75098,70045,2334.8333333333335,2.3062032615271164,2,2,6,2,2.0,2.0,b'SB_8_LongA.png',2337.164569261527,70114.93707784581,70114,2337.133333333333
67,2337.17751375,70115.3254125,70115,2337.1666666666665,2337.73948875,70132.1846625,70132,2337.733333333333,2339.7703025,70193.109075,70193,2339.766666666667,0.6824092822935199,2,2,7,2,2.0,3.0,b'SB_42_ShortA.png',2340.4527117822936,70213.5813534688,70213,2340.4333333333334
68,2340.473294,70214.19881999999,70214,2340.4666666666667,2341.0552574999997,70231.657725,70231,2341.0333333333333,2343.0867395,70292.602185,70292,2343.0666666666666,0.24903358105802909,3,2,6,2,2.0,2.0,b'HB_39_LongA.png',2343.335773081058,70300.07319243174,70300,2343.3333333333335
69,2343.3431902499997,70300.29570749999,70300,2343.3333333333335,2343.9651034999997,70318.953105,70318,2343.9333333333334,2345.9966449999997,70379.89934999999,70379,2345.9666666666667,0.017224429961061105,2,1,2,1,2.0,3.0,b'SB_30_ShortA.png',2346.013869429961,70380.41608289882,70380,2346.0
70,2346.0205297499997,70380.61589249999,70380,2346.0,2346.68257,70400.4771,70400,2346.6666666666665,2348.714089,70461.42267,70461,2348.7,1.4854114005865995,2,2,7,2,2.0,3.0,b'SB_44_ShortA.png',2350.1995004005867,70505.9850120176,70505,2350.1666666666665
71,2350.22214525,70506.66435749999,70506,2350.2,2350.844318,70525.32953999999,70525,2350.8333333333335,2352.875791,70586.27373,70586,2352.866666666667,0.8815505720849615,1,1,2,1,2.0,3.0,b'NB_18_ShortA.png',2353.757341572085,70612.72024716255,70612,2353.733333333333
72,2353.769277,70613.07831,70613,2353.766666666667,2354.41163275,70632.3489825,70632,2354.4,2356.44235425,70693.2706275,70693,2356.4333333333334,2.25312345995917,2,1,2,1,2.0,3.0,b'SB_10_LongA.png',2358.695477709959,70760.86433129877,70760,2358.6666666666665
73,2358.719036,70761.57108,70761,2358.7,2359.3009925,70779.029775,70779,2359.3,2361.33177,70839.9531,70839,2361.3,0.0017281834880122915,1,2,7,2,2.0,3.0,b'NB_18_LongA.png',2361.333498183488,70840.00494550464,70840,2361.3333333333335
74,2361.35301,70840.5903,70840,2361.3333333333335,2361.9148925,70857.446775,70857,2361.9,2363.94577075,70918.37312250001,70918,2363.9333333333334,2.3226383483415702,3,2,3,1,1.0,2.0,b'HB_14_LongA.png',2366.2684090983416,70988.05227295026,70988,2366.266666666667
75,2366.2921065,70988.763195,70988,2366.266666666667,2366.9340429999997,71008.02128999999,71008,2366.9333333333334,2368.96495375,71068.9486125,71068,2368.9333333333334,2.3206920045486186,2,2,7,2,2.0,3.0,b'SB_45_LongA.png',2371.2856457545486,71138.56937263646,71138,2371.266666666667
76,2371.2905105,71138.715315,71138,2371.266666666667,2371.95278,71158.5834,71158,2371.9333333333334,2373.984263,71219.52789,71219,2373.9666666666667,1.290016382568865,3,1,6,2,1.0,2.0,b'HB_25_ShortA.png',2375.2742793825687,71258.22838147706,71258,2375.266666666667
77,2375.2822982499997,71258.46894749999,71258,2375.266666666667,2375.8642864999997,71275.92859499999,71275,2375.8333333333335,2377.8949869999997,71336.84960999999,71336,2377.866666666667,1.1452123625495005,2,1,2,1,2.0,3.0,b'SB_33_LongA.png',2379.040199362549,71371.20598087648,71371,2379.0333333333333
78,2379.052085,71371.56254999999,71371,2379.0333333333333,2379.6942495,71390.827485,71390,2379.6666666666665,2381.72575075,71451.77252249999,71451,2381.7,-0.7505531601345865,1,1,2,1,2.0,3.0,b'NB_3_LongA.png',2380.9751975898653,71429.25592769595,71429,2380.9666666666667
79,2380.9889715,71429.66914499999,71429,2380.9666666666667,2381.59016225,71447.7048675,71447,2381.5666666666666,2383.62153125,71508.6459375,71508,2383.6,-0.3539508806570666,1,2,7,2,2.0,3.0,b'NB_22_ShortA.png',2383.267580369343,71498.02741108029,71498,2383.266666666667
80,2383.29139,71498.7417,71498,2383.266666666667,2383.89328025,71516.7984075,71516,2383.866666666667,2385.92460175,71577.7380525,71577,2385.9,1.829496398975607,3,1,6,2,1.0,2.0,b'HB_18_LongA.png',2387.7540981489756,71632.62294446927,71632,2387.733333333333
81,2387.76748075,71633.02442249999,71633,2387.766666666667,2388.34950425,71650.4851275,71650,2388.3333333333335,2390.38041225,71711.4123675,71711,2390.366666666667,0.8962370669760276,1,1,2,1,2.0,3.0,b'NB_14_LongA.png',2391.276649316976,71738.29947950928,71738,2391.266666666667
82,2391.2992365,71738.977095,71738,2391.266666666667,2391.92117225,71757.6351675,71757,2391.9,2393.9519729999997,71818.55918999999,71818,2393.9333333333334,2.040933952841442,1,1,2,1,2.0,3.0,b'NB_12_LongA.png',2395.992906952841,71879.78720858523,71879,2395.9666666666667
83,2396.005295,71880.15884999999,71880,2396.0,2396.58753075,71897.6259225,71897,2396.5666666666666,2398.6188585,71958.565755,71958,2398.6,1.9323219253856223,2,1,2,1,2.0,3.0,b'SB_2_LongA.png',2400.5511804253856,72016.53541276157,72016,2400.5333333333333
84,2400.56099525,72016.8298575,72016,2400.5333333333333,2401.203149,72036.09447,72036,2401.2,2403.2346359999997,72097.03907999999,72097,2403.233333333333,1.3408399125473807,2,1,7,2,1.0,3.0,b'SB_13_ShortA.png',2404.575475912547,72137.26427737641,72137,2404.5666666666666
85,2404.59957075,72137.98712250001,72137,2404.5666666666666,2405.2216654999997,72156.64996499999,72156,2405.2,2407.2531492499998,72217.5944775,72217,2407.233333333333,1.261743710419978,1,1,2,1,2.0,3.0,b'NB_5_LongA.png',2408.5148929604197,72255.4467888126,72255,2408.5
86,2408.536509,72256.09527,72256,2408.5333333333333,2409.0976505,72272.929515,72272,2409.0666666666666,2411.128488,72333.85463999999,72333,2411.1,1.2914599337382242,2,2,7,2,2.0,3.0,b'SB_27_LongA.png',2412.419947933738,72372.59843801214,72372,2412.4
87,2412.4332615,72372.99784499999,72372,2412.4,2413.0352205,72391.056615,72391,2413.0333333333333,2415.066782,72452.00345999999,72452,2415.0666666666666,1.8100694649619982,3,1,3,1,2.0,2.0,b'HB_41_ShortA.png',2416.876851464962,72506.30554394885,72506,2416.866666666667
88,2416.8964404999997,72506.89321499999,72506,2416.866666666667,2417.47821625,72524.3464875,72524,2417.4666666666667,2419.5091055,72585.27316499999,72585,2419.5,2.26731438114075,2,2,7,2,2.0,3.0,b'SB_14_ShortA.png',2421.7764198811406,72653.29259643421,72653,2421.766666666667
89,2421.7890294999997,72653.670885,72653,2421.766666666667,2422.41109725,72672.3329175,72672,2422.4,2424.4425775,72733.277325,72733,2424.4333333333334,1.6045248392329086,2,1,2,1,2.0,3.0,b'SB_40_ShortA.png',2426.047102339233,72781.41307017699,72781,2426.0333333333333
90,2426.068115,72782.04345,72782,2426.0666666666666,2426.71007725,72801.3023175,72801,2426.7,2428.7409857499997,72862.22957249999,72862,2428.733333333333,1.5016708467155695,1,2,7,2,2.0,3.0,b'NB_29_LongA.png',2430.2426565967153,72907.27969790145,72907,2430.233333333333
91,2430.25759925,72907.7279775,72907,2430.233333333333,2430.8395545,72925.18663499999,72925,2430.8333333333335,2432.87134125,72986.1402375,72986,2432.866666666667,2.1734403378650313,3,2,3,1,1.0,2.0,b'HB_36_LongA.png',2435.044781587865,73051.34344763595,73051,2435.0333333333333
92,2435.05654825,73051.6964475,73051,2435.0333333333333,2435.6987365,73070.962095,73070,2435.6666666666665,2437.7303362499997,73131.91008749999,73131,2437.7,0.9112360555445775,1,1,7,2,1.0,3.0,b'NB_9_LongA.png',2438.6415723055443,73159.24716916632,73159,2438.633333333333
93,2438.66160975,73159.8482925,73159,2438.633333333333,2439.3238659999997,73179.71598,73179,2439.3,2441.3553134999997,73240.659405,73240,2441.3333333333335,1.6805110771820182,1,2,3,1,1.0,2.0,b'NB_8_ShortA.png',2443.0358245771818,73291.07473731546,73291,2443.0333333333333
94,2443.04615225,73291.3845675,73291,2443.0333333333333,2443.6281182499997,73308.84354749999,73308,2443.6,2445.65900625,73369.77018749999,73369,2445.633333333333,2.130084365737275,2,2,2,1,1.0,3.0,b'SB_46_ShortA.png',2447.789090615737,73433.67271847211,73433,2447.766666666667
95,2447.8047845,73434.14353500001,73434,2447.8,2448.46679525,73454.00385749999,73454,2448.4666666666667,2450.497671,73514.93013000001,73514,2450.4666666666667,0.7701623502071016,3,1,6,2,1.0,2.0,b'HB_42_ShortA.png',2451.267833350207,73538.03500050622,73538,2451.266666666667
96,2451.28215275,73538.4645825,73538,2451.266666666667,2451.90420775,73557.1262325,73557,2451.9,2453.93544425,73618.0633275,73618,2453.9333333333334,1.7870773949252907,2,1,7,2,1.0,3.0,b'SB_23_LongA.png',2455.722521644925,73671.67564934776,73671,2455.7
97,2455.7273375,73671.820125,73671,2455.7,2456.3895785,73691.687355,73691,2456.366666666667,2458.421016,73752.63047999999,73752,2458.4,0.9622703278437257,2,2,7,2,2.0,3.0,b'SB_1_LongA.png',2459.3832863278435,73781.4985898353,73781,2459.366666666667
98,2459.39755925,73781.9267775,73781,2459.366666666667,2460.05977975,73801.7933925,73801,2460.0333333333333,2462.09088475,73862.7265425,73862,2462.0666666666666,2.1000551373435883,3,1,4,1,2.0,1.0,b'HB_11_ShortA.png',2464.1909398873436,73925.7281966203,73925,2464.1666666666665
99,2464.20976825,73926.29304749999,73926,2464.2,2464.791902,73943.75706,73943,2464.766666666667,2466.82326375,74004.6979125,74004,2466.8,1.5368226839636918,3,1,3,1,2.0,2.0,b'HB_29_ShortA.png',2468.3600864339637,74050.80259301892,74050,2468.3333333333335
100,2468.36769625,74051.03088749999,74051,2468.366666666667,2469.02980875,74070.8942625,74070,2469.0,2471.0609645,74131.828935,74131,2471.0333333333333,1.8314775013714097,2,1,7,2,1.0,3.0,b'SB_57_ShortA.png',2472.8924420013714,74186.77326004114,74186,2472.866666666667
101,2472.917282,74187.51845999999,74187,2472.9,2473.55926375,74206.7779125,74206,2473.5333333333333,2475.59076375,74267.7229125,74267,2475.5666666666666,2.18335464145639,1,2,7,2,2.0,3.0,b'NB_1_LongA.png',2477.7741183914563,74333.2235517437,74333,2477.766666666667
102,2477.7975355,74333.92606499999,74333,2477.766666666667,2478.4598145,74353.794435,74353,2478.4333333333334,2480.4910935,74414.73280499999,74414,2480.4666666666667,0.6140449644299224,3,2,6,2,2.0,2.0,b'HB_2_LongA.png',2481.1051384644297,74433.15415393289,74433,2481.1
103,2481.11678325,74433.5034975,74433,2481.1,2481.7188165,74451.564495,74451,2481.7,2483.74970525,74512.4911575,74512,2483.733333333333,1.3188304042560048,2,1,7,2,1.0,3.0,b'SB_49_ShortA.png',2485.068535654256,74552.05606962768,74552,2485.0666666666666
104,2485.0904542499998,74552.7136275,74552,2485.0666666666666,2485.712539,74571.37617,74571,2485.7,2487.74368525,74632.3105575,74632,2487.733333333333,1.7738858986995183,3,2,4,1,1.0,1.0,b'HB_48_LongA.png',2489.5175711486995,74685.52713446098,74685,2489.5
105,2489.5335765,74686.007295,74686,2489.5333333333333,2490.1155055,74703.465165,74703,2490.1,2492.1468035,74764.404105,74764,2492.133333333333,0.9959583659947384,3,1,3,1,2.0,2.0,b'HB_30_LongA.png',2493.1427618659945,74794.28285597984,74794,2493.133333333333
106,2493.1653002499997,74794.95900749999,74794,2493.133333333333,2493.76739375,74813.0218125,74813,2493.766666666667,2495.79885975,74873.96579249999,74873,2495.766666666667,4.360491914034355,3,1,6,2,1.0,2.0,b'HB_3_ShortA.png',2500.159351664034,75004.78054992102,75004,2500.133333333333
107,2500.1664965,75004.994895,75004,2500.133333333333,2500.7281745,75021.845235,75021,2500.7,2502.7590615,75082.771845,75082,2502.733333333333,0.540417434531264,2,2,2,1,1.0,3.0,b'SB_25_LongA.png',2503.299478934531,75098.98436803593,75098,2503.266666666667
108,2503.3131934999997,75099.395805,75099,2503.3,2503.8951322499997,75116.85396749999,75116,2503.866666666667,2505.9264747499997,75177.7942425,75177,2505.9,0.6197936894168379,1,1,7,2,1.0,3.0,b'NB_7_LongA.png',2506.5462684394165,75196.3880531825,75196,2506.5333333333333
109,2506.5689132499997,75197.0673975,75197,2506.5666666666666,2507.15092525,75214.52775750001,75214,2507.133333333333,2509.1824067499997,75275.4722025,75275,2509.1666666666665,1.9392004018591251,3,2,3,1,1.0,2.0,b'HB_57_LongA.png',2511.121607151859,75333.64821455577,75333,2511.1
110,2511.13419975,75334.0259925,75334,2511.133333333333,2511.79661275,75353.8983825,75353,2511.766666666667,2513.8279785,75414.839355,75414,2513.8,1.8111735721759032,3,1,6,2,1.0,2.0,b'HB_54_LongA.png',2515.639152072176,75469.17456216528,75469,2515.633333333333
111,2515.64947425,75469.4842275,75469,2515.633333333333,2516.3117035,75489.351105,75489,2516.3,2518.3432285,75550.296855,75550,2518.3333333333335,1.5796133965923218,2,2,2,1,1.0,3.0,b'SB_12_ShortA.png',2519.922841896592,75597.68525689776,75597,2519.9
112,2519.94121775,75598.2365325,75598,2519.9333333333334,2520.52308575,75615.6925725,75615,2520.5,2522.55438525,75676.6315575,75676,2522.5333333333333,1.6979903846950037,3,2,6,2,2.0,2.0,b'HB_43_ShortA.png',2524.252375634695,75727.57126904085,75727,2524.233333333333
113,2524.27232675,75728.16980250001,75728,2524.266666666667,2524.89428,75746.8284,75746,2524.866666666667,2526.9258852499997,75807.7765575,75807,2526.9,1.7946787060791394,3,1,6,2,1.0,2.0,b'HB_53_LongA.png',2528.720563956079,75861.61691868237,75861,2528.7
114,2528.73725125,75862.1175375,75862,2528.733333333333,2529.3391025,75880.173075,75880,2529.3333333333335,2531.3705695,75941.11708499999,75941,2531.366666666667,0.09617418487323448,1,2,2,1,1.0,3.0,b'NB_30_LongA.png',2531.466743684873,75944.00231054619,75944,2531.4666666666667
115,2531.4817372499997,75944.4521175,75944,2531.4666666666667,2532.0839075,75962.517225,75962,2532.0666666666666,2534.1146249999997,76023.43874999999,76023,2534.1,1.4256095206510508,2,1,2,1,2.0,3.0,b'SB_34_ShortA.png',2535.5402345206508,76066.20703561952,76066,2535.5333333333333
116,2535.54818325,76066.4454975,76066,2535.5333333333333,2536.1503815,76084.511445,76084,2536.133333333333,2538.1816532499997,76145.44959749999,76145,2538.1666666666665,1.0499410704360344,2,1,7,2,1.0,3.0,b'SB_54_ShortA.png',2539.2315943204358,76176.94782961307,76176,2539.2
117,2539.2549165,76177.647495,76177,2539.233333333333,2539.836686,76195.10058,76195,2539.8333333333335,2541.8681792499997,76256.04537749999,76256,2541.866666666667,1.5169455396389822,2,2,2,1,1.0,3.0,b'SB_56_LongA.png',2543.3851247896387,76301.55374368916,76301,2543.366666666667
118,2543.39862525,76301.95875749999,76301,2543.366666666667,2544.02069175,76320.62075249999,76320,2544.0,2546.0515969999997,76381.54791,76381,2546.0333333333333,0.0,1,1,1,1,2.0,0.0,b'NB_2_LongA.png',2546.0515969999997,76381.54791,76381,2546.0333333333333
119,2547.9806375,76439.419125,76439,2547.9666666666667,2548.60258575,76458.0775725,76458,2548.6,2550.6340622499997,76519.02186749999,76519,2550.633333333333,0.7210535424819682,1,2,7,2,2.0,3.0,b'NB_27_ShortA.png',2551.3551157924817,76540.65347377445,76540,2551.3333333333335
120,2551.3763865,76541.291595,76541,2551.366666666667,2551.95829525,76558.7488575,76558,2551.9333333333334,2553.98965425,76619.6896275,76619,2553.9666666666667,0.8149340784875676,2,1,2,1,2.0,3.0,b'SB_58_LongA.png',2554.8045883284876,76644.13764985463,76644,2554.8
121,2554.8137767499998,76644.41330249999,76644,2554.8,2555.43589775,76663.0769325,76663,2555.4333333333334,2557.4666427499997,76723.9992825,76723,2557.4333333333334,2.814064854173921,2,2,7,2,2.0,3.0,b'SB_16_LongA.png',2560.2807076041736,76808.42122812521,76808,2560.266666666667
122,2560.2980294999998,76808.94088499999,76808,2560.266666666667,2560.919959,76827.59877,76827,2560.9,2562.9508592499997,76888.52577749999,76888,2562.9333333333334,2.943280903098639,3,2,6,2,2.0,2.0,b'HB_38_ShortA.png',2565.8941401530983,76976.82420459295,76976,2565.866666666667
123,2565.9178469999997,76977.53541,76977,2565.9,2566.56020525,76996.80615749999,76996,2566.5333333333333,2568.590921,77057.72763,77057,2568.5666666666666,0.271292948993505,2,1,2,1,2.0,3.0,b'SB_32_ShortA.png',2568.8622139489935,77065.8664184698,77065,2568.8333333333335
124,2568.8692887499997,77066.07866249999,77066,2568.866666666667,2569.5113109999998,77085.33932999999,77085,2569.5,2571.5422034999997,77146.26610499999,77146,2571.5333333333333,0.31125522396177985,2,1,2,1,2.0,3.0,b'SB_52_ShortA.png',2571.8534587239615,77155.60376171884,77155,2571.8333333333335
125,2571.861516,77155.84548,77155,2571.8333333333335,2572.48339975,77174.5019925,77174,2572.4666666666667,2574.5149045,77235.447135,77235,2574.5,2.1951993337424938,2,2,7,2,2.0,3.0,b'SB_21_ShortA.png',2576.7101038337423,77301.30311501227,77301,2576.7
126,2576.73352325,77302.0056975,77302,2576.733333333333,2577.3554879999997,77320.66463999999,77320,2577.3333333333335,2579.38708575,77381.6125725,77381,2579.366666666667,-0.8532553327095229,1,1,7,2,1.0,3.0,b'NB_27_LongA.png',2578.5338304172906,77356.01491251872,77356,2578.5333333333333
127,2578.55457275,77356.6371825,77356,2578.5333333333333,2579.1766285,77375.298855,77375,2579.1666666666665,2581.2079639999997,77436.23891999999,77436,2581.2,0.7028671285515884,3,1,3,1,2.0,2.0,b'HB_32_LongA.png',2581.9108311285513,77457.32493385654,77457,2581.9
128,2581.9314787499998,77457.9443625,77457,2581.9,2582.5735984999997,77477.20795499999,77477,2582.5666666666666,2584.6049307499998,77538.1479225,77538,2584.6,1.6140845307381824,1,1,7,2,1.0,3.0,b'NB_16_LongA.png',2586.219015280738,77586.57045842214,77586,2586.2
129,2586.230211,77586.90633,77586,2586.2,2586.812323,77604.36969,77604,2586.8,2588.8434927499998,77665.3047825,77665,2588.8333333333335,1.235301849534153,3,2,3,1,1.0,2.0,b'HB_44_ShortA.png',2590.078794599534,77702.36383798602,77702,2590.0666666666666
130,2590.09651025,77702.8953075,77702,2590.0666666666666,2590.7187185,77721.561555,77721,2590.7,2592.75034875,77782.5104625,77782,2592.733333333333,1.9666885668120813,1,1,7,2,1.0,3.0,b'NB_8_LongA.png',2594.717037316812,77841.51111950436,77841,2594.7
131,2594.7284717499997,77841.85415249999,77841,2594.7,2595.35042975,77860.5128925,77860,2595.3333333333335,2597.3818945,77921.45683499999,77921,2597.366666666667,2.7676885401451727,3,2,3,1,1.0,2.0,b'HB_4_ShortA.png',2600.149583040145,78004.48749120435,78004,2600.133333333333
132,2600.17136975,78005.1410925,78005,2600.1666666666665,2600.8334415,78025.003245,78025,2600.8333333333335,2602.86486625,78085.9459875,78085,2602.8333333333335,2.0721040671051014,1,1,7,2,1.0,3.0,b'NB_13_ShortA.png',2604.936970317105,78148.10910951316,78148,2604.9333333333334
133,2604.9527195,78148.581585,78148,2604.9333333333334,2605.554738,78166.64214,78166,2605.5333333333333,2607.58611375,78227.5834125,78227,2607.5666666666666,2.300495699295425,3,1,3,1,2.0,2.0,b'HB_16_ShortA.png',2609.8866094492955,78296.59828347886,78296,2609.866666666667
134,2609.8996172499997,78296.9885175,78296,2609.866666666667,2610.5215212499998,78315.6456375,78315,2610.5,2612.55301125,78376.5903375,78376,2612.5333333333333,1.729874732438475,3,1,6,2,1.0,2.0,b'HB_59_ShortA.png',2614.2828859824385,78428.48657947316,78428,2614.266666666667
135,2614.2922439999998,78428.76732,78428,2614.266666666667,2614.89428275,78446.8284825,78446,2614.866666666667,2616.9257602499997,78507.77280749999,78507,2616.9,1.7387241612450453,1,1,2,1,2.0,3.0,b'NB_25_ShortA.png',2618.6644844112448,78559.93453233734,78559,2618.633333333333
136,2618.68406275,78560.5218825,78560,2618.6666666666665,2619.32604925,78579.7814775,78579,2619.3,2621.3574747499997,78640.72424249999,78640,2621.3333333333335,1.2874791642534547,1,2,2,1,1.0,3.0,b'NB_24_ShortA.png',2622.644953914253,78679.34861742759,78679,2622.633333333333
137,2622.66490025,78679.9470075,78679,2622.633333333333,2623.24685775,78697.4057325,78697,2623.233333333333,2625.27764225,78758.3292675,78758,2625.266666666667,3.0606342575047165,3,2,5,2,2.0,1.0,b'HB_31_ShortA.png',2628.338276507505,78850.14829522514,78850,2628.3333333333335
138,2628.3553735,78850.661205,78850,2628.3333333333335,2629.0174294999997,78870.52288499998,78870,2629.0,2631.0483605,78931.450815,78931,2631.0333333333333,0.8731174991989974,2,1,2,1,2.0,3.0,b'SB_43_LongA.png',2631.921477999199,78957.64433997597,78957,2631.9
139,2631.9319459999997,78957.95838,78957,2631.9,2632.553799,78976.61396999999,78976,2632.5333333333333,2634.5847965,79037.543895,79037,2634.5666666666666,1.49072003258334,1,2,7,2,2.0,3.0,b'NB_17_LongA.png',2636.075516532583,79082.2654959775,79082,2636.0666666666666
140,2636.0904805,79082.714415,79082,2636.0666666666666,2636.672266,79100.16798,79100,2636.6666666666665,2638.7037425,79161.11227499999,79161,2638.7,1.810040325653972,3,2,6,2,2.0,2.0,b'HB_20_ShortA.png',2640.513782825654,79215.41348476961,79215,2640.5
141,2640.535351,79216.06053,79216,2640.5333333333333,2641.17734175,79235.3202525,79235,2641.1666666666665,2643.2082364999997,79296.24709499998,79296,2643.2,3.3075842350372113,1,1,6,2,1.0,2.0,b'NB_26_ShortA.png',2646.515820735037,79395.4746220511,79395,2646.5
142,2646.53479975,79396.0439925,79396,2646.5333333333333,2647.1566924999997,79414.70077499999,79414,2647.133333333333,2649.1883255,79475.649765,79475,2649.1666666666665,2.712694768473739,3,2,3,1,1.0,2.0,b'HB_23_ShortA.png',2651.9010202684735,79557.0306080542,79557,2651.9
143,2651.9087495,79557.262485,79557,2651.9,2652.5910974999997,79577.73292499999,79577,2652.5666666666666,2654.62211,79638.6633,79638,2654.6,0.9660963564965641,2,2,7,2,2.0,3.0,b'SB_47_LongA.png',2655.5882063564964,79667.6461906949,79667,2655.5666666666666
144,2655.608488,79668.25464,79668,2655.6,2656.190282,79685.70846,79685,2656.1666666666665,2658.2218117499997,79746.65435249999,79746,2658.2,0.0,2,2,1,1,1.0,0.0,b'SB_28_ShortA.png',2658.2218117499997,79746.65435249999,79746,2658.2
145,2659.20492325,79776.1476975,79776,2659.2,2659.82687675,79794.8063025,79794,2659.8,2661.858316,79855.74948,79855,2661.8333333333335,2.083160263253376,2,1,2,1,2.0,3.0,b'SB_50_LongA.png',2663.941476263253,79918.2442878976,79918,2663.9333333333334
146,2663.9604045,79918.812135,79918,2663.9333333333334,2664.62256475,79938.6769425,79938,2664.6,2666.6539882499997,79999.61964749999,79999,2666.633333333333,1.4133885391493095,1,1,7,2,1.0,3.0,b'NB_3_ShortA.png',2668.067376789149,80042.02130367447,80042,2668.0666666666666
147,2668.0910597499997,80042.7317925,80042,2668.0666666666666,2668.7530082499998,80062.59024749999,80062,2668.733333333333,2670.78447875,80123.5343625,80123,2670.766666666667,1.893288202569238,3,1,5,2,1.0,1.0,b'HB_24_LongA.png',2672.677766952569,80180.33300857707,80180,2672.6666666666665
148,2672.6830299999997,80180.49089999999,80180,2672.6666666666665,2673.3251915,80199.755745,80199,2673.3,2675.3565517499997,80260.69655249998,80260,2675.3333333333335,3.436300470275455,3,2,6,2,2.0,2.0,b'HB_50_LongA.png',2678.792852220275,80363.78556660825,80363,2678.766666666667
149,2678.813807,80364.41421,80364,2678.8,2679.45586825,80383.6760475,80383,2679.4333333333334,2681.48685325,80444.6055975,80444,2681.4666666666667,1.5172497963503702,2,2,2,1,1.0,3.0,b'SB_19_ShortA.png',2683.0041030463503,80490.12309139052,80490,2683.0
150,2683.0149539999998,80490.44862,80490,2683.0,2683.63711575,80509.1134725,80509,2683.633333333333,2685.6685465,80570.056395,80570,2685.6666666666665,2.6092409909324488,3,2,6,2,2.0,2.0,b'HB_9_ShortA.png',2688.2777874909325,80648.33362472798,80648,2688.266666666667
151,2688.2907057499997,80648.7211725,80648,2688.266666666667,2688.9128095,80667.38428500001,80667,2688.9,2690.94378875,80728.31366249999,80728,2690.9333333333334,2.4567194391420344,3,2,6,2,2.0,2.0,b'HB_33_LongA.png',2693.400508189142,80802.01524567425,80802,2693.4
152,2693.4147722499997,80802.4431675,80802,2693.4,2694.016832,80820.50495999999,80820,2694.0,2696.04769375,80881.4308125,80881,2696.0333333333333,1.1595556584070437,3,2,6,2,2.0,2.0,b'HB_27_LongA.png',2697.207249408407,80916.2174822522,80916,2697.2
153,2697.21638325,80916.4914975,80916,2697.2,2697.7983422499997,80933.9502675,80933,2697.766666666667,2699.82941825,80994.88254749999,80994,2699.8,1.5170622973964782,3,1,3,1,2.0,2.0,b'HB_19_LongA.png',2701.3464805473964,81040.39441642188,81040,2701.3333333333335
154,2701.3710712499997,81041.13213749998,81041,2701.366666666667,2701.9731085,81059.19325499999,81059,2701.9666666666667,2704.0040885,81120.122655,81120,2704.0,2.2271018849278335,3,1,4,1,2.0,1.0,b'HB_52_ShortA.png',2706.2311903849277,81186.93571154783,81186,2706.2
155,2706.2438577499997,81187.31573249999,81187,2706.233333333333,2706.86578225,81205.97346749999,81205,2706.8333333333335,2708.8967764999998,81266.903295,81266,2708.866666666667,2.1447614065400558,3,2,6,2,2.0,2.0,b'HB_17_LongA.png',2711.04153790654,81331.2461371962,81331,2711.0333333333333
156,2711.05435675,81331.6307025,81331,2711.0333333333333,2711.6563965,81349.691895,81349,2711.633333333333,2713.6879515,81410.638545,81410,2713.6666666666665,1.0145158683153568,1,1,7,2,1.0,3.0,b'NB_20_LongA.png',2714.7024673683154,81441.07402104946,81441,2714.7
157,2714.7162825,81441.488475,81441,2714.7,2715.35843475,81460.7530425,81460,2715.3333333333335,2717.38989125,81521.6967375,81521,2717.366666666667,0.668477061248268,3,2,6,2,2.0,2.0,b'HB_1_LongA.png',2718.058368311248,81541.75104933744,81541,2718.0333333333333
158,2718.0806132499997,81542.41839749999,81542,2718.0666666666666,2718.6827585,81560.482755,81560,2718.6666666666665,2720.7137485,81621.412455,81621,2720.7,1.7923088166426169,2,2,3,1,1.0,2.0,b'SB_59_ShortA.png',2722.5060573166425,81675.18171949928,81675,2722.5
159,2722.520792,81675.62375999999,81675,2722.5,2723.1628084999998,81694.884255,81694,2723.133333333333,2725.1942679999997,81755.82804,81755,2725.1666666666665,2.762575289263623,1,1,7,2,1.0,3.0,b'NB_19_ShortA.png',2727.9568432892634,81838.7052986779,81838,2727.9333333333334
160,2727.961848,81838.85544,81838,2727.9333333333334,2728.52370825,81855.71124749999,81855,2728.5,2730.5548047499997,81916.6441425,81916,2730.5333333333333,0.07887867372483015,2,1,2,1,2.0,3.0,b'SB_48_LongA.png',2730.6336834237245,81919.01050271174,81919,2730.633333333333
161,2730.6548645,81919.645935,81919,2730.633333333333,2731.2368229999997,81937.10469,81937,2731.233333333333,2733.2681977499997,81998.04593249998,81998,2733.266666666667,2.134187920251861,3,1,3,1,2.0,2.0,b'HB_35_ShortA.png',2735.4023856702515,82062.07157010754,82062,2735.4
162,2735.422315,82062.66944999999,82062,2735.4,2736.04455525,82081.3366575,82081,2736.0333333333333,2738.07597275,82142.2791825,82142,2738.0666666666666,2.527303940762067,1,2,7,2,2.0,3.0,b'NB_9_ShortA.png',2740.603276690762,82218.09830072286,82218,2740.6
163,2740.6170522499997,82218.51156749998,82218,2740.6,2741.25906,82237.7718,82237,2741.233333333333,2743.290618,82298.71854,82298,2743.266666666667,3.079674009757582,1,2,7,2,2.0,3.0,b'NB_6_ShortA.png',2746.3702920097576,82391.10876029273,82391,2746.366666666667
164,2746.39509425,82391.8528275,82391,2746.366666666667,2746.97675675,82409.30270249999,82409,2746.9666666666667,2749.0082332499996,82470.24699749998,82470,2749.0,2.33501191646792,1,2,7,2,2.0,3.0,b'NB_25_LongA.png',2751.3432451664676,82540.29735499402,82540,2751.3333333333335
165,2751.35771275,82540.73138249999,82540,2751.3333333333335,2751.9797985,82559.393955,82559,2751.9666666666667,2754.01087,82620.3261,82620,2754.0,2.200297287432477,3,2,3,1,1.0,2.0,b'HB_8_ShortA.png',2756.2111672874325,82686.33501862298,82686,2756.2
166,2756.2241302499997,82686.7239075,82686,2756.2,2756.8059235,82704.17770500001,82704,2756.8,2758.837407,82765.12221,82765,2758.8333333333335,0.3760516293841647,3,2,3,1,1.0,2.0,b'HB_10_ShortA.png',2759.213458629384,82776.40375888153,82776,2759.2
167,2759.22043525,82776.6130575,82776,2759.2,2759.86243075,82795.8729225,82795,2759.8333333333335,2761.89334775,82856.8004325,82856,2761.866666666667,1.9270996668637963,1,2,7,2,2.0,3.0,b'NB_19_LongA.png',2763.8204474168638,82914.6134225059,82914,2763.8
168,2763.84189225,82915.2567675,82915,2763.8333333333335,2764.5240355,82935.721065,82935,2764.5,2766.55547425,82996.66422749999,82996,2766.5333333333333,2.760923465291853,1,1,7,2,1.0,3.0,b'NB_6_LongA.png',2769.3163977152917,83079.49193145875,83079,2769.3
169,2769.33741875,83080.1225625,83080,2769.3333333333335,2769.939441,83098.18323,83098,2769.9333333333334,2771.97073925,83159.1221775,83159,2771.9666666666667,1.200759111205116,1,2,6,2,2.0,2.0,b'NB_26_LongA.png',2773.171498361205,83195.14495083615,83195,2773.1666666666665
170,2773.18931775,83195.6795325,83195,2773.1666666666665,2773.791343,83213.74029,83213,2773.766666666667,2775.8226285,83274.678855,83274,2775.8,0.9053814731305465,3,1,2,1,2.0,3.0,b'HB_56_ShortA.png',2776.7280099731306,83301.84029919392,83301,2776.7
171,2776.7475772499997,83302.4273175,83302,2776.733333333333,2777.3494315,83320.482945,83320,2777.3333333333335,2779.38034025,83381.4102075,83381,2779.366666666667,3.153436493157642,3,1,2,1,2.0,3.0,b'HB_15_LongA.png',2782.5337767431574,83476.01330229473,83476,2782.5333333333333
172,2782.5552172499997,83476.65651749999,83476,2782.5333333333333,2783.19740425,83495.9221275,83495,2783.1666666666665,2785.22871975,83556.8615925,83556,2785.2,1.0755763351626229,1,2,7,2,2.0,3.0,b'NB_22_LongA.png',2786.3042960851626,83589.12888255488,83589,2786.3
173,2786.31178425,83589.3535275,83589,2786.3,2786.9537665,83608.61299499999,83608,2786.9333333333334,2788.9852419999997,83669.55725999999,83669,2788.9666666666667,0.5592305716709234,1,2,6,2,2.0,2.0,b'NB_24_LongA.png',2789.5444725716707,83686.33417715011,83686,2789.5333333333333
174,2789.5565159999996,83686.69548,83686,2789.5333333333333,2790.15839525,83704.7518575,83704,2790.133333333333,2792.189855,83765.69565000001,83765,2792.1666666666665,3.105867549951654,1,1,7,2,1.0,3.0,b'NB_2_ShortA.png',2795.2957225499517,83858.87167649856,83858,2795.266666666667
175,2795.3187435,83859.562305,83859,2795.3,2795.94066175,83878.2198525,83878,2795.9333333333334,2797.9720952499997,83939.16285749999,83939,2797.9666666666667,0.13560646705445834,2,1,2,1,2.0,3.0,b'SB_6_LongA.png',2798.107701717054,83943.23105151163,83943,2798.1
176,2798.11882725,83943.5648175,83943,2798.1,2798.7407827499997,83962.22348249999,83962,2798.733333333333,2800.7721472499998,84023.1644175,84023,2800.766666666667,3.721831856673816,1,2,3,1,1.0,2.0,b'NB_5_ShortA.png',2804.4939791066736,84134.81937320021,84134,2804.4666666666667
177,2804.50658225,84135.1974675,84135,2804.5,2805.088567,84152.65701,84152,2805.0666666666666,2807.12005,84213.6015,84213,2807.1,1.5899918791255914,2,1,7,2,1.0,3.0,b'SB_4_LongA.png',2808.7100418791256,84261.30125637377,84261,2808.7
178,2808.71818825,84261.5456475,84261,2808.7,2809.29995525,84278.99865750001,84278,2809.266666666667,2811.3309615,84339.92884499999,84339,2811.3,1.4277250118611846,3,1,2,1,2.0,3.0,b'HB_34_LongA.png',2812.758686511861,84382.76059535582,84382,2812.733333333333
179,2812.83578825,84385.0736475,84385,2812.8333333333335,2813.43119225,84402.9357675,84402,2813.4,2815.47311725,84464.1935175,84464,2815.4666666666667,0.06401811605610419,2,2,3,1,1.0,2.0,b'SB_30_LongA.png',2815.537135366056,84466.11406098168,84466,2815.5333333333333
180,2815.56582475,84466.9747425,84466,2815.5333333333333,2816.1416175,84484.248525,84484,2816.133333333333,2818.2042539999998,84546.12762,84546,2818.2,2.812427394586848,2,1,7,2,1.0,3.0,b'SB_30_ShortA.png',2821.0166813945866,84630.5004418376,84630,2821.0
