trial_num,fixcross_time,fixation_HZ,fixation_bin,fixation_regarded,start_time,Fstart_HZ,Fstart_bin,Fstart_regarded,stop_time,Fstop_HZ,Fstop_bin,Fstop_regarded,RT,boundary_type,key,resp_value,leftright,accuracy,confidence,frameName,response_time,response_HZ,response_bin,response_regarded
1,2047.7658267499999,61432.97480249999,61432,2047.7333333333333,2048.2991752499997,61448.975257499995,61448,2048.266666666667,2050.3342132499997,61510.02639749999,61510,2050.3333333333335,2.110145954073232,1,2,6,2,2.0,2.0,b'NB_3_LongA.png',2052.444359204073,61573.33077612219,61573,2052.4333333333334
2,2052.45633175,61573.689952500004,61573,2052.4333333333334,2053.03953425,61591.1860275,61591,2053.0333333333333,2055.07318675,61652.195602499996,61652,2055.0666666666666,1.4771376628923463,1,2,7,2,2.0,3.0,b'NB_4_ShortA.png',2056.550324412892,61696.50973238677,61696,2056.5333333333333
3,2056.55687375,61696.706212499994,61696,2056.5333333333333,2057.09017225,61712.7051675,61712,2057.0666666666666,2059.12378025,61773.7134075,61773,2059.1,2.5523667563757044,3,1,4,1,2.0,1.0,b'HB_38_LongA.png',2061.6761470063757,61850.28441019127,61850,2061.6666666666665
4,2061.6858705,61850.576114999996,61850,2061.6666666666665,2062.26913775,61868.0741325,61868,2062.266666666667,2064.3026409999998,61929.079229999996,61929,2064.3,-1.1230247920684633,2,1,3,1,2.0,2.0,b'SB_8_LongA.png',2063.1796162079313,61895.38848623794,61895,2063.1666666666665
5,2063.1935439999997,61895.80631999999,61895,2063.1666666666665,2063.710205,61911.30615,61911,2063.7,2065.74374925,61972.312477499996,61972,2065.733333333333,1.1070056630924228,3,1,4,1,2.0,1.0,b'HB_29_LongA.png',2066.8507549130923,62005.52264739277,62005,2066.8333333333335
6,2066.85615775,62005.6847325,62005,2066.8333333333335,2067.372659,62021.17977,62021,2067.366666666667,2069.40611575,62082.1834725,62082,2069.4,1.4226251286454499,1,2,7,2,2.0,3.0,b'NB_30_LongA.png',2070.8287408786455,62124.862226359364,62124,2070.8
7,2070.835861,62125.07583,62125,2070.8333333333335,2071.3358184999997,62140.07455499999,62140,2071.3333333333335,2073.36938125,62201.081437500005,62201,2073.366666666667,1.304319207862136,1,2,6,2,2.0,2.0,b'NB_18_ShortA.png',2074.673700457862,62240.21101373587,62240,2074.6666666666665
8,2074.68931775,62240.679532500006,62240,2074.6666666666665,2075.20595425,62256.178627500005,62256,2075.2,2077.2394335,62317.183005,62317,2077.233333333333,0.6731439741342911,2,2,7,2,2.0,3.0,b'SB_28_ShortA.png',2077.912577474134,62337.37732422403,62337,2077.9
9,2077.9269245,62337.807735,62337,2077.9,2078.42680475,62352.8041425,62352,2078.4,2080.4602145,62413.806435,62413,2080.4333333333334,1.160070328078291,1,2,6,2,2.0,2.0,b'NB_17_ShortA.png',2081.620284828078,62448.60854484235,62448,2081.6
10,2081.6297302499997,62448.891907499994,62448,2081.6,2082.1963232499998,62465.889697499995,62465,2082.1666666666665,2084.22980925,62526.8942775,62526,2084.2,1.4223805649380665,1,1,2,1,2.0,3.0,b'NB_14_ShortA.png',2085.652189814938,62569.565694448145,62569,2085.633333333333
11,2085.659685,62569.790550000005,62569,2085.633333333333,2086.1929192499997,62585.78757749999,62585,2086.1666666666665,2088.22634575,62646.79037249999,62646,2088.2,1.6404087200571666,3,1,4,1,2.0,1.0,b'HB_12_ShortA.png',2089.866754470057,62696.00263410171,62696,2089.866666666667
12,2089.87346,62696.203799999996,62696,2089.866666666667,2090.3900357499997,62711.70107249999,62711,2090.366666666667,2092.4235535,62772.70660499999,62772,2092.4,3.240640191172133,3,2,5,2,2.0,1.0,b'HB_54_LongA.png',2095.664193691172,62869.925810735156,62869,2095.633333333333
13,2095.676402,62870.29206,62870,2095.6666666666665,2096.2096005,62886.288015,62886,2096.2,2098.24319625,62947.2958875,62947,2098.233333333333,0.9599661953470786,1,1,3,1,2.0,2.0,b'NB_24_LongA.png',2099.203162445347,62976.09487336041,62976,2099.2
14,2099.2066529999997,62976.19958999999,62976,2099.2,2099.70665675,62991.1997025,62991,2099.7,2101.74005175,63052.2015525,63052,2101.733333333333,2.311174394839327,3,1,4,1,2.0,1.0,b'HB_39_ShortA.png',2104.0512261448393,63121.53678434518,63121,2104.0333333333333
15,2104.06955025,63122.0865075,63122,2104.0666666666666,2104.5695705,63137.087114999995,63137,2104.5666666666666,2106.6031775,63198.095325,63198,2106.6,-0.2555330029790639,1,1,3,1,2.0,2.0,b'NB_26_LongA.png',2106.347644497021,63190.42933491063,63190,2106.3333333333335
16,2106.36097475,63190.829242499996,63190,2106.3333333333335,2106.8608274999997,63205.82482499999,63205,2106.8333333333335,2108.8943572499998,63266.83071749999,63266,2108.866666666667,2.222496243273781,1,1,2,1,2.0,3.0,b'NB_11_ShortA.png',2111.1168534932735,63333.50560479821,63333,2111.1
17,2111.12665475,63333.7996425,63333,2111.1,2111.62663775,63348.799132500004,63348,2111.6,2113.66022275,63409.80668249999,63409,2113.633333333333,0.45876980880711926,2,1,2,1,2.0,3.0,b'SB_20_ShortA.png',2114.118992558807,63423.569776764205,63423,2114.1
18,2114.1208045,63423.624135,63423,2114.1,2114.62080125,63438.624037500005,63438,2114.6,2116.65430475,63499.629142499994,63499,2116.633333333333,0.7103718879297958,1,2,6,2,2.0,2.0,b'NB_8_LongA.png',2117.3646766379297,63520.94029913789,63520,2117.3333333333335
19,2117.37836075,63521.3508225,63521,2117.366666666667,2117.94490125,63538.347037499996,63538,2117.9333333333334,2119.97854925,63599.3564775,63599,2119.9666666666667,2.1531080156564713,2,2,7,2,2.0,3.0,b'SB_22_ShortA.png',2122.1316572656565,63663.94971796969,63663,2122.1
20,2122.1450649999997,63664.35194999999,63664,2122.133333333333,2122.6617415,63679.852245,63679,2122.633333333333,2124.6951707499998,63740.85512249999,63740,2124.6666666666665,2.945846494018042,2,1,2,1,2.0,3.0,b'SB_54_LongA.png',2127.641017244018,63829.23051732053,63829,2127.633333333333
21,2127.6459385,63829.378155,63829,2127.633333333333,2128.17913475,63845.37404249999,63845,2128.1666666666665,2130.2126169999997,63906.37850999999,63906,2130.2,1.1902689022317645,1,1,2,1,2.0,3.0,b'NB_6_ShortA.png',2131.4028859022314,63942.08657706694,63942,2131.4
22,2131.40532925,63942.159877499995,63942,2131.4,2131.98861725,63959.6585175,63959,2131.9666666666667,2134.022093,64020.66279,64020,2134.0,1.6065145902321092,2,2,2,1,1.0,3.0,b'SB_50_shortA.png',2135.628607590232,64068.858227706965,64068,2135.6
23,2135.6327375,64068.982125,64068,2135.6,2136.16602975,64084.980892499996,64084,2136.133333333333,2138.19958225,64145.987467499996,64145,2138.1666666666665,3.666978529363405,3,1,4,1,2.0,1.0,b'HB_31_ShortA.png',2141.866560779363,64255.9968233809,64255,2141.8333333333335
24,2141.876711,64256.301329999995,64256,2141.866666666667,2142.42659825,64272.7979475,64272,2142.4,2144.48754725,64334.626417499996,64334,2144.4666666666667,1.1322121762495954,1,1,3,1,2.0,2.0,b'NB_23_ShortA.png',2145.6197594262494,64368.592782787484,64368,2145.6
25,2145.6356465,64369.069395,64369,2145.633333333333,2146.13561325,64384.0683975,64384,2146.133333333333,2148.1691895,64445.075684999996,64445,2148.1666666666665,1.8409302548898268,3,2,3,1,1.0,2.0,b'HB_17_LongA.png',2150.0101197548897,64500.30359264669,64500,2150.0
26,2150.01581,64500.474299999994,64500,2150.0,2150.515816,64515.474480000004,64515,2150.5,2152.5492245,64576.476735000004,64576,2152.5333333333333,1.7791266976637417,2,1,3,1,2.0,2.0,b'SB_52_LongA.png',2154.328351197664,64629.850535929916,64629,2154.3
27,2154.33740175,64630.1220525,64630,2154.3333333333335,2154.9039777499997,64647.11933249999,64647,2154.9,2156.9374547499997,64708.12364249999,64708,2156.9333333333334,0.5723795231242548,2,2,7,2,2.0,3.0,b'SB_45_ShortA.png',2157.509834273124,64725.295028193716,64725,2157.5
28,2157.5184655,64725.55396499999,64725,2157.5,2158.0517385,64741.552155,64741,2158.0333333333333,2160.085303,64802.559089999995,64802,2160.0666666666666,2.267183800446219,3,1,5,2,1.0,1.0,b'HB_30_LongA.png',2162.352486800446,64870.57460401338,64870,2162.3333333333335
29,2162.35978175,64870.793452499995,64870,2162.3333333333335,2162.909764,64887.29292,64887,2162.9,2164.9434404999997,64948.30321499999,64948,2164.9333333333334,2.656741666382004,3,1,4,1,2.0,1.0,b'HB_57_LongA.png',2167.6001821663817,65028.00546499145,65028,2167.6
30,2167.61559125,65028.467737499996,65028,2167.6,2168.198837,65045.96511,65045,2168.1666666666665,2170.2324264999997,65106.972794999994,65106,2170.2,1.8411552590769134,1,1,2,1,2.0,3.0,b'NB_14_LongA.png',2172.0735817590767,65162.2074527723,65162,2172.0666666666666
31,2172.07916325,65162.3748975,65162,2172.0666666666666,2172.57918075,65177.3754225,65177,2172.5666666666666,2174.61283825,65238.385147500005,65238,2174.6,0.2317459423429682,2,1,6,2,1.0,2.0,b'SB_29_ShortA.png',2174.844584192343,65245.337525770294,65245,2174.8333333333335
32,2174.8470035,65245.410105,65245,2174.8333333333335,2175.41367775,65262.410332499996,65262,2175.4,2177.4470965,65323.412895,65323,2177.4333333333334,1.0555412301400793,2,1,3,1,2.0,2.0,b'SB_26_LongA.png',2178.50263773014,65355.079131904204,65355,2178.5
33,2178.5048444999998,65355.145334999994,65355,2178.5,2179.0549029999997,65371.64708999999,65371,2179.0333333333333,2181.0885172499998,65432.655517499996,65432,2181.0666666666666,2.5349620718843653,3,2,6,2,2.0,2.0,b'HB_36_LongA.png',2183.623479321884,65508.70437965653,65508,2183.6
34,2183.6372495,65509.117485,65509,2183.633333333333,2184.13717575,65524.1152725,65524,2184.133333333333,2186.1707229999997,65585.12168999999,65585,2186.1666666666665,1.7922873119678115,2,2,6,2,2.0,2.0,b'SB_1_LongA.png',2187.9630103119675,65638.89030935902,65638,2187.9333333333334
35,2187.97261025,65639.1783075,65639,2187.9666666666667,2188.48935825,65654.6807475,65654,2188.4666666666667,2190.5227155,65715.68146499999,65715,2190.5,0.7502861517277779,3,2,3,1,1.0,2.0,b'HB_27_ShortA.png',2191.2730016517276,65738.19004955182,65738,2191.266666666667
36,2191.2848605,65738.54581499999,65738,2191.266666666667,2191.8514407499997,65755.5432225,65755,2191.8333333333335,2193.88489825,65816.5469475,65816,2193.866666666667,3.0714546520393924,2,2,7,2,2.0,3.0,b'SB_60_ShortA.png',2196.9563529020393,65908.69058706118,65908,2196.9333333333334
37,2196.96356225,65908.9068675,65908,2196.9333333333334,2197.496826,65924.90478,65924,2197.4666666666667,2199.53025725,65985.9077175,65985,2199.5,1.3671760040087975,2,2,7,2,2.0,3.0,b'SB_44_LongA.png',2200.897433254009,66026.92299762026,66026,2200.866666666667
38,2200.90068025,66027.0204075,66027,2200.9,2201.45063275,66043.5189825,66043,2201.4333333333334,2203.484237,66104.52711000001,66104,2203.4666666666667,2.6083348757601925,1,1,2,1,2.0,3.0,b'NB_11_LongA.png',2206.0925718757603,66182.77715627282,66182,2206.0666666666666
39,2206.09530575,66182.8591725,66182,2206.0666666666666,2206.6618949999997,66199.85685,66199,2206.633333333333,2208.6953205,66260.859615,66260,2208.6666666666665,0.2740919364587171,2,2,3,1,1.0,2.0,b'SB_17_LongA.png',2208.9694124364587,66269.08237309376,66269,2208.9666666666667
40,2208.97688375,66269.3065125,66269,2208.9666666666667,2209.560167,66286.80501,66286,2209.5333333333333,2211.5935905,66347.807715,66347,2211.5666666666666,-0.6571988755677012,1,2,7,2,2.0,3.0,b'NB_7_ShortA.png',2210.9363916244324,66328.09174873297,66328,2210.9333333333334
41,2210.9434499999998,66328.3035,66328,2210.9333333333334,2211.4434417499997,66343.30325249999,66343,2211.4333333333334,2213.47688025,66404.3064075,66404,2213.4666666666667,0.2783142466942081,2,1,7,2,1.0,3.0,b'SB_13_ShortA.png',2213.755194496694,66412.65583490083,66412,2213.733333333333
42,2213.7717184999997,66413.15155499999,66413,2213.766666666667,2214.35504125,66430.6512375,66430,2214.3333333333335,2216.3885179999997,66491.65553999999,66491,2216.366666666667,1.533439682541939,1,1,6,2,1.0,2.0,b'NB_9_LongA.png',2217.9219576825417,66537.65873047625,66537,2217.9
43,2217.92943775,66537.8831325,66537,2217.9,2218.4960094999997,66554.88028499999,66554,2218.4666666666667,2220.52965,66615.8895,66615,2220.5,0.918477920065925,1,2,3,1,1.0,2.0,b'NB_2_ShortA.png',2221.448127920066,66643.44383760198,66643,2221.4333333333334
44,2221.4521354999997,66643.56406499998,66643,2221.4333333333334,2222.0187982499997,66660.56394749999,66660,2222.0,2224.0523574999997,66721.570725,66721,2224.0333333333333,0.06411232094251318,1,1,7,2,1.0,3.0,b'NB_29_ShortA.png',2224.1164698209423,66723.49409462827,66723,2224.1
45,2224.13220475,66723.9661425,66723,2224.1,2224.71553975,66741.4661925,66741,2224.7,2226.7489244999997,66802.46773499998,66802,2226.733333333333,-0.297489020114881,3,1,3,1,2.0,2.0,b'HB_56_ShortA.png',2226.451435479885,66793.54306439654,66793,2226.4333333333334
46,2226.4678302499997,66794.0349075,66794,2226.4666666666667,2227.034398,66811.03193999999,66811,2227.0333333333333,2229.0680195,66872.040585,66872,2229.0666666666666,2.1663606668735156,3,1,6,2,1.0,2.0,b'HB_60_ShortA.png',2231.2343801668735,66937.0314050062,66937,2231.233333333333
47,2231.2516499999997,66937.5495,66937,2231.233333333333,2231.85158475,66955.54754249999,66955,2231.8333333333335,2233.885086,67016.55257999999,67016,2233.866666666667,0.14799697868875228,2,2,6,2,2.0,2.0,b'SB_2_LongA.png',2234.0330829786885,67020.99248936065,67020,2234.0
48,2234.0444657499997,67021.3339725,67021,2234.0333333333333,2234.59447675,67037.8343025,67037,2234.5666666666666,2236.6281805,67098.84541499999,67098,2236.6,0.8277547909601708,3,2,3,1,1.0,2.0,b'HB_8_LongA.png',2237.45593529096,67123.67805872881,67123,2237.4333333333334
49,2237.46156725,67123.8470175,67123,2237.4333333333334,2237.978159,67139.34477,67139,2237.9666666666667,2240.011684,67200.35052,67200,2240.0,0.9599083934517694,1,2,7,2,2.0,3.0,b'NB_16_ShortA.png',2240.971592393452,67229.14777180356,67229,2240.9666666666667
50,2240.9745734999997,67229.23720499998,67229,2240.9666666666667,2241.54124275,67246.2372825,67246,2241.5333333333333,2243.574884,67307.24652,67307,2243.5666666666666,3.6115979525857256,3,2,4,1,1.0,1.0,b'HB_13_ShortA.png',2247.186481952586,67415.59445857757,67415,2247.1666666666665
51,2247.1932515,67415.797545,67415,2247.1666666666665,2247.7099315,67431.297945,67431,2247.7,2249.7433565,67492.300695,67492,2249.733333333333,2.1298301720016752,3,2,6,2,2.0,2.0,b'HB_59_ShortA.png',2251.873186672002,67556.19560016005,67556,2251.866666666667
52,2251.88621525,67556.5864575,67556,2251.866666666667,2252.38605675,67571.5817025,67571,2252.366666666667,2254.41945825,67632.5837475,67632,2254.4,2.280195993538655,3,2,4,1,1.0,1.0,b'HB_46_ShortA.png',2256.6996542435386,67700.98962730616,67700,2256.6666666666665
53,2256.70443475,67701.1330425,67701,2256.7,2257.25442325,67717.6326975,67717,2257.233333333333,2259.2878957499997,67778.63687249999,67778,2259.266666666667,1.1354089015367208,1,1,6,2,1.0,2.0,b'NB_24_ShortA.png',2260.4233046515365,67812.6991395461,67812,2260.4
54,2260.43301725,67812.9905175,67812,2260.4,2260.93294025,67827.98820749999,67827,2260.9,2262.9665345,67888.99603499999,67888,2262.9333333333334,2.3015945284059853,3,1,4,1,2.0,1.0,b'HB_58_ShortA.png',2265.268129028406,67958.04387085217,67958,2265.266666666667
55,2265.28117625,67958.4352875,67958,2265.266666666667,2265.847764,67975.43292,67975,2265.8333333333335,2267.88136075,68036.44082250001,68036,2267.866666666667,1.6956206624599872,2,2,7,2,2.0,3.0,b'SB_12_LongA.png',2269.57698141246,68087.30944237381,68087,2269.5666666666666
56,2269.58022825,68087.4068475,68087,2269.5666666666666,2270.13020675,68103.9062025,68103,2270.1,2272.16373425,68164.91202749999,68164,2272.133333333333,1.466458945440536,2,2,2,1,1.0,3.0,b'SB_23_LongA.png',2273.6301931954404,68208.90579586322,68208,2273.6
57,2273.64552775,68209.3658325,68209,2273.633333333333,2274.1288305,68223.864915,68223,2274.1,2276.16243,68284.8729,68284,2276.133333333333,1.2615106609810027,2,1,6,2,1.0,2.0,b'SB_38_LongA.png',2277.423940660981,68322.71821982943,68322,2277.4
58,2277.4323125,68322.969375,68322,2277.4,2277.932285,68337.96854999999,68337,2277.9,2279.9657174999998,68398.97152499999,68398,2279.9333333333334,2.700186931047938,3,1,5,2,1.0,1.0,b'HB_21_ShortA.png',2282.6659044310477,68479.97713293142,68479,2282.633333333333
59,2282.6824617499997,68480.47385249998,68480,2282.6666666666665,2283.2657795,68497.973385,68497,2283.233333333333,2285.2993954999997,68558.981865,68558,2285.266666666667,1.341448574756214,3,1,5,2,1.0,1.0,b'HB_24_ShortA.png',2286.640844074756,68599.22532224268,68599,2286.633333333333
60,2286.64718575,68599.4155725,68599,2286.633333333333,2287.1471435,68614.414305,68614,2287.133333333333,2289.1807165,68675.421495,68675,2289.1666666666665,3.2536323175299913,1,1,3,1,2.0,2.0,b'NB_18_LongA.png',2292.43434881753,68773.0304645259,68773,2292.4333333333334
61,2292.443837,68773.31511,68773,2292.4333333333334,2292.9772077499997,68789.31623249999,68789,2292.9666666666667,2295.0106794999997,68850.32038499998,68850,2295.0,1.5605522304758779,3,1,5,2,1.0,1.0,b'HB_34_ShortA.png',2296.5712317304756,68897.13695191426,68897,2296.5666666666666
62,2296.5865875,68897.597625,68897,2296.5666666666666,2297.169957,68915.09871,68915,2297.1666666666665,2299.20338975,68976.1016925,68976,2299.2,-0.019178390539309476,1,2,6,2,2.0,2.0,b'NB_21_LongA.png',2299.1842113594607,68975.52634078382,68975,2299.1666666666665
63,2299.18983625,68975.6950875,68975,2299.1666666666665,2299.773179,68993.19537,68993,2299.766666666667,2301.8067969999997,69054.20391,69054,2301.8,1.5536899598446325,2,2,2,1,1.0,3.0,b'SB_25_ShortA.png',2303.3604869598444,69100.81460879534,69100,2303.3333333333335
64,2303.372222,69101.16666,69101,2303.366666666667,2303.88886125,69116.6658375,69116,2303.866666666667,2305.92228475,69177.6685425,69177,2305.9,1.0500522447910043,2,1,2,1,2.0,3.0,b'SB_14_LongA.png',2306.972336994791,69209.17010984373,69209,2306.9666666666667
65,2306.98696475,69209.6089425,69209,2306.9666666666667,2307.553601,69226.60803,69226,2307.5333333333333,2309.5870219999997,69287.61065999999,69287,2309.5666666666666,1.8298275706692948,3,1,5,2,1.0,1.0,b'HB_35_ShortA.png',2311.416849570669,69342.50548712007,69342,2311.4
66,2311.4275835,69342.827505,69342,2311.4,2311.960921,69358.82763,69358,2311.9333333333334,2313.9944065,69419.832195,69419,2313.9666666666667,2.9888193462393247,1,2,7,2,2.0,3.0,b'NB_1_ShortA.png',2316.9832258462393,69509.49677538718,69509,2316.9666666666667
67,2316.9950734999998,69509.85220499999,69509,2316.9666666666667,2317.54495775,69526.3487325,69526,2317.5333333333333,2319.5783672499997,69587.3510175,69587,2319.5666666666666,0.6604767352037015,2,1,7,2,1.0,3.0,b'SB_41_ShortA.png',2320.2388439852034,69607.16531955611,69607,2320.233333333333
68,2320.24105525,69607.2316575,69607,2320.233333333333,2320.7742475,69623.227425,69623,2320.766666666667,2322.80782525,69684.2347575,69684,2322.8,1.3025546774588292,1,1,6,2,1.0,2.0,b'NB_3_ShortA.png',2324.110379927459,69723.31139782377,69723,2324.1
69,2324.1272945,69723.818835,69723,2324.1,2324.6604899999998,69739.81469999999,69739,2324.633333333333,2326.69387225,69800.8161675,69800,2326.6666666666665,1.5159747338766465,2,1,2,1,2.0,3.0,b'SB_30_ShortA.png',2328.2098469838766,69846.2954095163,69846,2328.2
70,2328.21825675,69846.5477025,69846,2328.2,2328.7182697499998,69861.54809249999,69861,2328.7,2330.7518725,69922.556175,69922,2330.733333333333,2.0145906717225444,1,2,7,2,2.0,3.0,b'NB_12_LongA.png',2332.7664631717225,69982.99389515168,69982,2332.733333333333
71,2332.773582,69983.20745999999,69983,2332.766666666667,2333.323413,69999.70239,69999,2333.3,2335.35694075,70060.70822249999,70060,2335.3333333333335,1.6462982215816737,2,1,2,1,2.0,3.0,b'SB_3_LongA.png',2337.0032389715816,70110.09716914746,70110,2337.0
72,2337.014726,70110.44178,70110,2337.0,2337.564637,70126.93910999999,70126,2337.5333333333333,2339.5982517499997,70187.94755249999,70187,2339.5666666666666,2.61089498376532,3,1,3,1,2.0,2.0,b'HB_10_LongA.png',2342.209146733765,70266.27440201295,70266,2342.2
73,2342.2122529999997,70266.36759,70266,2342.2,2342.7623062499997,70282.8691875,70282,2342.733333333333,2344.7960977499997,70343.8829325,70343,2344.766666666667,0.8972388349720859,1,2,6,2,2.0,2.0,b'NB_5_LongA.png',2345.693336584972,70370.80009754916,70370,2345.6666666666665
74,2345.70163,70371.0489,70371,2345.7,2346.201559,70386.04677,70386,2346.2,2348.23528575,70447.0585725,70447,2348.233333333333,0.3450958217945299,1,1,2,1,2.0,3.0,b'NB_8_ShortA.png',2348.5803815717945,70457.41144715383,70457,2348.5666666666666
75,2348.5913029999997,70457.73908999999,70457,2348.5666666666666,2349.141443,70474.24329,70474,2349.133333333333,2351.1747655,70535.242965,70535,2351.1666666666665,0.23081344052479835,2,1,7,2,1.0,3.0,b'SB_32_ShortA.png',2351.4055789405247,70542.16736821574,70542,2351.4
76,2351.41779625,70542.5338875,70542,2351.4,2352.01772575,70560.53177249999,70560,2352.0,2354.05119625,70621.5358875,70621,2354.0333333333333,1.8609843900994747,1,1,2,1,2.0,3.0,b'NB_15_ShortA.png',2355.9121806400995,70677.36541920298,70677,2355.9
77,2355.924107,70677.72321,70677,2355.9,2356.4573567499997,70693.7207025,70693,2356.4333333333334,2358.4907755,70754.723265,70754,2358.4666666666667,2.082452361792093,3,2,3,1,1.0,2.0,b'HB_22_ShortA.png',2360.573227861792,70817.19683585376,70817,2360.5666666666666
78,2360.58280325,70817.4840975,70817,2360.5666666666666,2361.16598625,70834.9795875,70834,2361.133333333333,2363.1996365,70895.989095,70895,2363.1666666666665,1.9731619629237684,1,1,6,2,1.0,2.0,b'NB_5_ShortA.png',2365.1727984629238,70955.18395388771,70955,2365.1666666666665
79,2365.18406275,70955.5218825,70955,2365.1666666666665,2365.7006834999997,70971.020505,70971,2365.7,2367.73416625,71032.0249875,71032,2367.733333333333,1.1351866720578982,3,2,6,2,2.0,2.0,b'HB_5_LongA.png',2368.8693529220577,71066.08058766174,71066,2368.866666666667
80,2368.88411625,71066.52348749999,71066,2368.866666666667,2369.43411975,71083.02359249999,71083,2369.4333333333334,2371.46770625,71144.0311875,71144,2371.4666666666667,2.5134124481483013,3,2,4,1,1.0,1.0,b'HB_40_ShortA.png',2373.9811186981483,71219.43356094445,71219,2373.9666666666667
81,2373.983625,71219.50875,71219,2373.9666666666667,2374.4835705,71234.507115,71234,2374.4666666666667,2376.51699925,71295.5099775,71295,2376.5,-0.9066260106556001,2,2,6,2,2.0,2.0,b'SB_18_ShortA.png',2375.6103732393444,71268.31119718033,71268,2375.6
82,2375.61447775,71268.4343325,71268,2375.6,2376.2143457499997,71286.43037249999,71286,2376.2,2378.24773,71347.4319,71347,2378.233333333333,1.882422971422784,3,2,6,2,2.0,2.0,b'HB_48_LongA.png',2380.130152971423,71403.90458914268,71403,2380.1
83,2380.1361895,71404.085685,71404,2380.133333333333,2380.66940225,71420.0820675,71420,2380.6666666666665,2382.70280375,71481.0841125,71481,2382.7,2.092202658241149,1,1,6,2,1.0,2.0,b'NB_19_ShortA.png',2384.795006408241,71543.85019224724,71543,2384.766666666667
84,2384.8121109999997,71544.36333,71544,2384.8,2385.3287287499998,71559.8618625,71559,2385.3,2387.3623355,71620.870065,71620,2387.3333333333335,0.55723397465772,2,2,7,2,2.0,3.0,b'SB_7_ShortA.png',2387.9195694746577,71637.58708423973,71637,2387.9
85,2387.9230804999997,71637.692415,71637,2387.9,2388.4730325,71654.190975,71654,2388.4666666666667,2390.5066779999997,71715.20034,71715,2390.5,0.6861977467633551,3,2,4,1,1.0,1.0,b'HB_23_ShortA.png',2391.192875746763,71735.7862724029,71735,2391.1666666666665
86,2391.19618275,71735.8854825,71735,2391.1666666666665,2391.779494,71753.38481999999,71753,2391.766666666667,2393.8128874999998,71814.386625,71814,2393.8,0.11793913285509916,2,1,6,2,1.0,2.0,b'SB_24_ShortA.png',2393.930826632855,71817.92479898565,71817,2393.9
87,2393.9494287499997,71818.4828625,71818,2393.9333333333334,2394.43271075,71832.9813225,71832,2394.4,2396.46610475,71893.9831425,71893,2396.4333333333334,0.3429865754151251,2,2,2,1,1.0,3.0,b'SB_47_ShortA.png',2396.809091325415,71904.27273976245,71904,2396.8
88,2396.8186984999998,71904.560955,71904,2396.8,2397.4019925,71922.05977499999,71922,2397.4,2399.4356267499998,71983.0688025,71983,2399.4333333333334,1.6512089172611013,3,1,4,1,2.0,1.0,b'HB_14_ShortA.png',2401.086835667261,72032.60507001783,72032,2401.0666666666666
89,2401.0882832499997,72032.64849749999,72032,2401.0666666666666,2401.6049347499998,72048.14804249999,72048,2401.6,2403.6385765,72109.157295,72109,2403.633333333333,1.9875557748164283,2,2,2,1,1.0,3.0,b'SB_21_LongA.png',2405.6261322748164,72168.78396824449,72168,2405.6
90,2405.63443475,72169.0330425,72169,2405.633333333333,2406.20102125,72186.0306375,72186,2406.2,2408.23456475,72247.03694250001,72247,2408.233333333333,0.5650764930105652,3,2,6,2,2.0,2.0,b'HB_37_LongA.png',2408.7996412430107,72263.98923729033,72263,2408.766666666667
91,2408.8051535,72264.154605,72264,2408.8,2409.33856525,72280.1569575,72280,2409.3333333333335,2411.37200075,72341.1600225,72341,2411.366666666667,0.4673720728678745,2,1,7,2,1.0,3.0,b'SB_48_LongA.png',2411.839372822868,72355.18118468604,72355,2411.8333333333335
92,2411.84810925,72355.4432775,72355,2411.8333333333335,2412.364647,72370.93940999999,72370,2412.3333333333335,2414.3980665,72431.941995,72431,2414.366666666667,1.0671498125811922,1,1,6,2,1.0,2.0,b'NB_20_ShortA.png',2415.465216312581,72463.95648937744,72463,2415.4333333333334
93,2415.47326375,72464.1979125,72464,2415.4666666666667,2416.00651875,72480.1955625,72480,2416.0,2418.03991925,72541.1975775,72541,2418.0333333333333,1.0348916666844161,2,2,7,2,2.0,3.0,b'SB_37_ShortA.png',2419.0748109166843,72572.24432750054,72572,2419.0666666666666
94,2419.0881985,72572.645955,72572,2419.0666666666666,2419.6213722499997,72588.6411675,72588,2419.6,2421.6548494999997,72649.64548499999,72649,2421.633333333333,3.6481709287691046,2,1,7,2,1.0,3.0,b'SB_16_ShortA.png',2425.303020428769,72759.09061286306,72759,2425.3
95,2425.31451925,72759.4355775,72759,2425.3,2425.881233,72776.43699,72776,2425.866666666667,2427.9145399999998,72837.4362,72837,2427.9,1.1521867092742468,2,1,7,2,1.0,3.0,b'SB_56_ShortA.png',2429.066726709274,72872.00180127822,72872,2429.0666666666666
96,2429.069064,72872.07191999999,72872,2429.0666666666666,2429.5690194999997,72887.070585,72887,2429.5666666666666,2431.602474,72948.07422,72948,2431.6,2.1559859969711397,1,1,6,2,1.0,2.0,b'NB_28_ShortA.png',2433.758459996971,73012.75379990913,73012,2433.733333333333
97,2433.775537,73013.26611,73013,2433.766666666667,2434.29215175,73028.7645525,73028,2434.266666666667,2436.373791,73091.21373,73091,2436.366666666667,1.10167854915926,1,1,7,2,1.0,3.0,b'NB_22_ShortA.png',2437.4754695491592,73124.26408647478,73124,2437.4666666666667
98,2437.4848265,73124.544795,73124,2437.4666666666667,2437.9847729999997,73139.54319,73139,2437.9666666666667,2440.0182285,73200.54685500001,73200,2440.0,0.2604014012613334,2,2,3,1,1.0,2.0,b'SB_4_LongA.png',2440.2786299012614,73208.35889703785,73208,2440.266666666667
99,2440.2856429999997,73208.56928999998,73208,2440.266666666667,2440.785564,73223.56692,73223,2440.766666666667,2442.8190234999997,73284.57070499999,73284,2442.8,2.4450295984133845,1,2,6,2,2.0,2.0,b'NB_10_LongA.png',2445.264053098413,73357.92159295239,73357,2445.233333333333
100,2445.278844,73358.36532,73358,2445.266666666667,2445.82867575,73374.8602725,73374,2445.8,2447.862123,73435.86369,73435,2447.8333333333335,0.9283921244277735,3,2,6,2,2.0,2.0,b'HB_9_LongA.png',2448.7905151244277,73463.71545373283,73463,2448.766666666667
101,2448.795322,73463.85966,73463,2448.766666666667,2449.345289,73480.35867,73480,2449.3333333333335,2451.3787979999997,73541.36394,73541,2451.366666666667,1.406229244734277,1,1,6,2,1.0,2.0,b'NB_23_LongA.png',2452.785027244734,73583.55081734202,73583,2452.766666666667
102,2452.7924602499997,73583.7738075,73583,2452.766666666667,2453.29237575,73598.77127249999,73598,2453.266666666667,2455.325972,73659.77916,73659,2455.3,1.057546055810235,1,2,7,2,2.0,3.0,b'NB_22_LongA.png',2456.3835180558103,73691.50554167431,73691,2456.366666666667
103,2456.390305,73691.70915,73691,2456.366666666667,2456.9069085,73707.207255,73707,2456.9,2458.940554,73768.21661999999,73768,2458.9333333333334,1.323758346712566,2,2,3,1,1.0,2.0,b'SB_49_ShortA.png',2460.2643123467124,73807.92937040137,73807,2460.233333333333
104,2460.279193,73808.37578999999,73808,2460.266666666667,2460.79582525,73823.87475749999,73823,2460.766666666667,2462.82923575,73884.87707249999,73884,2462.8,2.178099720957107,3,1,6,2,1.0,2.0,b'HB_33_LongA.png',2465.007335470957,73950.2200641287,73950,2465.0
105,2465.00990475,73950.2971425,73950,2465.0,2465.50984925,73965.29547750001,73965,2465.5,2467.5434795,74026.304385,74026,2467.5333333333333,-0.21978819865034893,1,2,7,2,2.0,3.0,b'NB_2_LongA.png',2467.3236913013498,74019.71073904049,74019,2467.3
106,2467.329436,74019.88308,74019,2467.3,2467.82928025,74034.8784075,74034,2467.8,2469.86292875,74095.88786249999,74095,2469.8333333333335,3.310789895047492,1,2,2,1,1.0,3.0,b'NB_10_ShortA.png',2473.1737186450473,74195.21155935142,74195,2473.1666666666665
107,2473.17969175,74195.3907525,74195,2473.1666666666665,2473.729622,74211.88866,74211,2473.7,2475.7632065,74272.896195,74272,2475.733333333333,-0.13140300316445064,2,2,2,1,1.0,3.0,b'SB_46_LongA.png',2475.6318034968353,74268.95410490506,74268,2475.6
108,2475.639282,74269.17846,74269,2475.633333333333,2476.1392512499997,74284.17753749999,74284,2476.133333333333,2478.17261225,74345.1783675,74345,2478.1666666666665,1.9151893173038843,1,1,7,2,1.0,3.0,b'NB_7_LongA.png',2480.087801567304,74402.63404701912,74402,2480.0666666666666
109,2480.0910405,74402.73121499999,74402,2480.0666666666666,2480.62430675,74418.72920249999,74418,2480.6,2482.657788,74479.73364,74479,2482.633333333333,0.46487748901563464,2,1,7,2,1.0,3.0,b'SB_15_LongA.png',2483.1226654890156,74493.67996467047,74493,2483.1
110,2483.139428,74494.18284,74494,2483.133333333333,2483.6727109999997,74510.18132999999,74510,2483.6666666666665,2485.70621825,74571.1865475,74571,2485.7,-0.15905673764063977,3,1,5,2,1.0,1.0,b'HB_43_LongA.png',2485.5471615123593,74566.41484537077,74566,2485.5333333333333
111,2485.549831,74566.49493,74566,2485.5333333333333,2486.1497695,74584.493085,74584,2486.133333333333,2488.183164,74645.49492,74645,2488.1666666666665,0.2871331905480474,3,1,4,1,2.0,1.0,b'HB_11_LongA.png',2488.470297190548,74654.10891571644,74654,2488.4666666666667
112,2488.47888575,74654.36657249999,74654,2488.4666666666667,2489.0121725,74670.365175,74670,2489.0,2491.0456839999997,74731.37052,74731,2491.0333333333333,2.9304744151086197,3,2,3,1,1.0,2.0,b'HB_6_LongA.png',2493.9761584151083,74819.28475245326,74819,2493.9666666666667
113,2493.9920804999997,74819.76241499999,74819,2493.9666666666667,2494.49207325,74834.7621975,74834,2494.4666666666667,2496.5255279999997,74895.76584,74895,2496.5,0.6535822976002237,2,1,3,1,2.0,2.0,b'SB_35_ShortA.png',2497.1791102976,74915.373308928,74915,2497.1666666666665
114,2497.18385725,74915.5157175,74915,2497.1666666666665,2497.7338345,74932.01503499999,74932,2497.733333333333,2499.767332,74993.01995999999,74993,2499.766666666667,0.9107916288339766,1,1,2,1,2.0,3.0,b'NB_15_LongA.png',2500.678123628834,75020.34370886501,75020,2500.6666666666665
115,2500.69180525,75020.7541575,75020,2500.6666666666665,2501.2417472499997,75037.25241749999,75037,2501.233333333333,2503.27524675,75098.25740249999,75098,2503.266666666667,1.458178055807366,1,2,3,1,1.0,2.0,b'NB_30_ShortA.png',2504.7334248058073,75142.00274417421,75142,2504.733333333333
116,2504.7412635,75142.237905,75142,2504.733333333333,2505.32446275,75159.73388249999,75159,2505.3,2507.3582214999997,75220.74664499999,75220,2507.3333333333335,0.9970364919281565,1,2,2,1,1.0,3.0,b'NB_25_ShortA.png',2508.355257991928,75250.65773975784,75250,2508.3333333333335
117,2508.3642582499997,75250.92774749998,75250,2508.3333333333335,2508.94753125,75268.4259375,75268,2508.9333333333334,2510.98102375,75329.4307125,75329,2510.9666666666667,0.7230091772216838,1,2,2,1,1.0,3.0,b'NB_4_LongA.png',2511.7040329272218,75351.12098781666,75351,2511.7
118,2511.7191159999998,75351.57347999999,75351,2511.7,2512.3024057499997,75369.07217249999,75369,2512.3,2514.3359837499997,75430.07951249999,75430,2514.3333333333335,0.5506399097066605,1,2,2,1,1.0,3.0,b'NB_17_LongA.png',2514.8866236597064,75446.59870979119,75446,2514.866666666667
119,2514.8946395,75446.83918499999,75446,2514.866666666667,2515.4778632499997,75464.33589749999,75464,2515.4666666666667,2517.5113775,75525.341325,75525,2517.5,2.0175751371571096,3,2,5,2,2.0,1.0,b'HB_7_ShortA.png',2519.528952637157,75585.86857911471,75585,2519.5
120,2519.53831575,75586.1494725,75586,2519.5333333333333,2520.10491,75603.1473,75603,2520.1,2522.1384614999997,75664.153845,75664,2522.133333333333,2.2253186439193087,3,1,3,1,2.0,2.0,b'HB_53_LongA.png',2524.363780143919,75730.91340431757,75730,2524.3333333333335
121,2524.37665925,75731.2997775,75731,2524.366666666667,2524.959708,75748.79123999999,75748,2524.9333333333334,2526.99323825,75809.79714750001,75809,2526.9666666666667,1.1423561304764007,2,2,7,2,2.0,3.0,b'SB_9_LongA.png',2528.1355943804765,75844.0678314143,75844,2528.133333333333
122,2528.1414135,75844.242405,75844,2528.133333333333,2528.7079344999997,75861.23803499999,75861,2528.7,2530.7415404999997,75922.24621499999,75922,2530.733333333333,2.599122819949116,3,2,5,2,2.0,1.0,b'HB_3_ShortA.png',2533.340663319949,76000.21989959847,76000,2533.3333333333335
123,2533.349357,76000.48071,76000,2533.3333333333335,2533.949314,76018.47942,76018,2533.9333333333334,2535.98277525,76079.4832575,76079,2535.9666666666667,2.7933819256941206,3,1,4,1,2.0,1.0,b'HB_28_LongA.png',2538.776157175694,76163.28471527083,76163,2538.766666666667
124,2538.779027,76163.37081000001,76163,2538.766666666667,2539.36230225,76180.8690675,76180,2539.3333333333335,2541.3958977499997,76241.87693249999,76241,2541.366666666667,2.189564065745799,2,2,3,1,1.0,2.0,b'SB_40_LongA.png',2543.5854618157455,76307.56385447236,76307,2543.5666666666666
125,2543.6018597499997,76308.05579249999,76308,2543.6,2544.1517774999998,76324.55332499999,76324,2544.133333333333,2546.1851935,76385.555805,76385,2546.1666666666665,-0.10157767448981758,1,2,2,1,1.0,3.0,b'NB_27_LongA.png',2546.08361582551,76382.5084747653,76382,2546.0666666666666
126,2546.0908544999998,76382.725635,76382,2546.0666666666666,2546.6741377499998,76400.22413249999,76400,2546.6666666666665,2548.7075904999997,76461.22771499999,76461,2548.7,1.2694328347497503,2,1,7,2,1.0,3.0,b'SB_58_ShortA.png',2549.9770233347494,76499.31070004248,76499,2549.9666666666667
127,2549.98590925,76499.57727750001,76499,2549.9666666666667,2550.519168,76515.57504,76515,2550.5,2552.5528047499997,76576.5841425,76576,2552.5333333333333,2.4941609816087293,1,2,7,2,2.0,3.0,b'NB_29_LongA.png',2555.0469657316085,76651.40897194826,76651,2555.0333333333333
128,2555.056219,76651.68657,76651,2555.0333333333333,2555.5895177499997,76667.68553249999,76667,2555.5666666666666,2557.6232207499997,76728.69662249999,76728,2557.6,0.9611055075438344,2,2,3,1,1.0,2.0,b'SB_5_LongA.png',2558.5843262575436,76757.52978772631,76757,2558.5666666666666
129,2558.59675375,76757.90261250001,76757,2558.5666666666666,2559.14668325,76774.4004975,76774,2559.133333333333,2561.18016525,76835.4049575,76835,2561.1666666666665,2.045563530715299,1,1,2,1,2.0,3.0,b'NB_25_LongA.png',2563.225728780715,76896.77186342145,76896,2563.2
130,2563.2350509999997,76897.05153,76897,2563.233333333333,2563.734962,76912.04886,76912,2563.733333333333,2565.7685585,76973.056755,76973,2565.766666666667,1.3318685543490574,2,1,7,2,1.0,3.0,b'SB_27_LongA.png',2567.100427054349,77013.01281163047,77013,2567.1
131,2567.106992,77013.20976,77013,2567.1,2567.65692675,77029.7078025,77029,2567.633333333333,2569.69034925,77090.7104775,77090,2569.6666666666665,1.9037533992886893,3,1,3,1,2.0,2.0,b'HB_44_LongA.png',2571.5941026492887,77147.82307947867,77147,2571.5666666666666
132,2571.6113075,77148.33922499999,77148,2571.6,2572.1612434999997,77164.837305,77164,2572.133333333333,2574.194635,77225.83905,77225,2574.1666666666665,2.4138472980848746,3,1,4,1,2.0,1.0,b'HB_19_LongA.png',2576.6084822980847,77298.25446894254,77298,2576.6
133,2576.6259327499997,77298.77798249999,77298,2576.6,2577.19257875,77315.7773625,77315,2577.1666666666665,2579.22613875,77376.7841625,77376,2579.2,0.9182960872567492,3,2,4,1,1.0,1.0,b'HB_49_LongA.png',2580.1444348372565,77404.3330451177,77404,2580.133333333333
134,2580.14743475,77404.4230425,77404,2580.133333333333,2580.6806865,77420.420595,77420,2580.6666666666665,2582.7140645,77481.42193499999,77481,2582.7,0.07993571231054375,2,1,2,1,2.0,3.0,b'SB_43_LongA.png',2582.7940002123105,77483.82000636932,77483,2582.766666666667
135,2582.80706775,77484.2120325,77484,2582.8,2583.3402742499998,77500.2082275,77500,2583.3333333333335,2585.37382275,77561.2146825,77561,2585.366666666667,1.4918486279348144,2,2,7,2,2.0,3.0,b'SB_39_ShortA.png',2586.8656713779346,77605.97014133804,77605,2586.8333333333335
136,2586.8768809999997,77606.30643,77606,2586.866666666667,2587.42684525,77622.80535750001,77622,2587.4,2589.46044725,77683.8134175,77683,2589.4333333333334,1.1051469248122885,1,1,7,2,1.0,3.0,b'NB_13_ShortA.png',2590.5655941748123,77716.96782524437,77716,2590.5333333333333
137,2590.58023925,77717.4071775,77717,2590.5666666666666,2591.0635362499997,77731.90608749999,77731,2591.0333333333333,2593.09702875,77792.9108625,77792,2593.0666666666666,0.5814006698419689,2,1,7,2,1.0,3.0,b'SB_31_LongA.png',2593.678429419842,77810.35288259525,77810,2593.6666666666665
138,2593.685635,77810.56904999999,77810,2593.6666666666665,2594.21880525,77826.5641575,77826,2594.2,2596.25241675,77887.5725025,77887,2596.233333333333,1.3450384739480796,3,1,3,1,2.0,2.0,b'HB_50_ShortA.png',2597.597455223948,77927.92365671844,77927,2597.5666666666666
139,2597.60817775,77928.2453325,77928,2597.6,2598.14146125,77944.24383749999,77944,2598.133333333333,2600.1750887499998,78005.25266249999,78005,2600.1666666666665,0.938327469091746,1,2,2,1,1.0,3.0,b'NB_1_LongA.png',2601.1134162190915,78033.40248657274,78033,2601.1
140,2601.1160959999997,78033.48288,78033,2601.1,2601.649388,78049.48164,78049,2601.633333333333,2603.6827785,78110.483355,78110,2603.6666666666665,1.3151199472122244,3,1,3,1,2.0,2.0,b'HB_18_ShortA.png',2604.9978984472123,78149.93695341637,78149,2604.9666666666667
141,2605.0002245,78150.006735,78150,2605.0,2605.56693125,78167.00793749999,78167,2605.5666666666666,2607.6005637499998,78228.0169125,78228,2607.6,2.167904822206765,1,2,2,1,1.0,3.0,b'NB_21_ShortA.png',2609.7684685722065,78293.0540571662,78293,2609.766666666667
142,2609.77775425,78293.3326275,78293,2609.766666666667,2610.2944245,78308.832735,78308,2610.266666666667,2612.3280445,78369.841335,78369,2612.3,1.5621866510628024,2,1,2,1,2.0,3.0,b'SB_53_LongA.png',2613.890231151063,78416.70693453189,78416,2613.866666666667
143,2613.8980027499997,78416.94008249999,78416,2613.866666666667,2614.4646454999997,78433.939365,78433,2614.4333333333334,2616.4981952499998,78494.94585749999,78494,2616.4666666666667,0.8202530379858217,2,2,3,1,1.0,2.0,b'SB_57_LongA.png',2617.3184482879856,78519.55344863956,78519,2617.3
144,2617.33281725,78519.98451750001,78519,2617.3,2617.849463,78535.48389,78535,2617.8333333333335,2619.8829929999997,78596.48978999999,78596,2619.866666666667,-0.3584665490343468,1,1,6,2,1.0,2.0,b'NB_20_LongA.png',2619.5245264509654,78585.73579352896,78585,2619.5
145,2619.54083125,78586.2249375,78586,2619.5333333333333,2620.09077025,78602.7231075,78602,2620.0666666666666,2622.1241609999997,78663.72482999999,78663,2622.1,0.3363164448455791,2,1,2,1,2.0,3.0,b'SB_51_ShortA.png',2622.4604774448453,78673.81432334536,78673,2622.4333333333334
146,2622.47768575,78674.33057250001,78674,2622.4666666666667,2623.0109617499998,78690.3288525,78690,2623.0,2625.07777325,78752.3331975,78752,2625.0666666666666,0.9846693173385574,3,2,6,2,2.0,2.0,b'HB_4_ShortA.png',2626.0624425673386,78781.87327702016,78781,2626.0333333333333
147,2626.0742465,78782.227395,78782,2626.0666666666666,2626.6242785,78798.728355,78798,2626.6,2628.6577115,78859.73134500001,78859,2628.633333333333,1.13215313636465,3,2,3,1,1.0,2.0,b'HB_47_ShortA.png',2629.7898646363647,78893.69593909095,78893,2629.766666666667
148,2629.80527275,78894.15818249999,78894,2629.8,2630.3052709999997,78909.15813,78909,2630.3,2632.33875925,78970.1627775,78970,2632.3333333333335,-1.2509104097043746,1,2,7,2,2.0,3.0,b'NB_12_ShortA.png',2631.0878488402955,78932.63546520886,78932,2631.0666666666666
149,2631.08957925,78932.6873775,78932,2631.0666666666666,2631.58959375,78947.6878125,78947,2631.5666666666666,2633.62320525,79008.6961575,79008,2633.6,2.041677473745949,3,1,5,2,1.0,1.0,b'HB_42_LongA.png',2635.664882723746,79069.94648171238,79069,2635.633333333333
150,2635.6746172499998,79070.2385175,79070,2635.6666666666665,2636.24127975,79087.2383925,79087,2636.233333333333,2638.27486925,79148.24607749999,79148,2638.266666666667,1.4065395369761973,3,1,6,2,1.0,2.0,b'HB_16_LongA.png',2639.681408786976,79190.44226360928,79190,2639.6666666666665
151,2639.6916975,79190.750925,79190,2639.6666666666665,2640.17499425,79205.2498275,79205,2640.1666666666665,2642.2083979999998,79266.25193999999,79266,2642.2,1.7663337462727213,3,1,3,1,2.0,2.0,b'HB_26_ShortA.png',2643.9747317462725,79319.24195238817,79319,2643.9666666666667
152,2643.9819172499997,79319.45751749999,79319,2643.9666666666667,2644.4818957499997,79334.45687249998,79334,2644.4666666666667,2646.5155285,79395.465855,79395,2646.5,-0.37761432747356594,2,2,2,1,1.0,3.0,b'SB_36_LongA.png',2646.1379141725265,79384.1374251758,79384,2646.133333333333
153,2646.1541265,79384.623795,79384,2646.133333333333,2646.687402,79400.62206,79400,2646.6666666666665,2648.7209825,79461.629475,79461,2648.7,1.25277381487831,3,2,3,1,1.0,2.0,b'HB_52_ShortA.png',2649.9737563148783,79499.21268944634,79499,2649.9666666666667
154,2649.978587,79499.35761,79499,2649.9666666666667,2650.4952325,79514.856975,79514,2650.4666666666667,2652.5288299999997,79575.86489999999,79575,2652.5,1.2724762557409122,2,1,7,2,1.0,3.0,b'SB_11_ShortA.png',2653.8013062557407,79614.03918767221,79614,2653.8
155,2653.81106475,79614.3319425,79614,2653.8,2654.344565,79630.33695,79630,2654.3333333333335,2656.377747,79691.33241,79691,2656.366666666667,1.680721679571434,3,1,4,1,2.0,1.0,b'HB_41_LongA.png',2658.0584686795714,79741.75406038715,79741,2658.0333333333333
156,2658.07029975,79742.1089925,79742,2658.0666666666666,2658.5870155,79757.61046499999,79757,2658.5666666666666,2660.62048875,79818.6146625,79818,2660.6,2.516595402164967,3,2,5,2,2.0,1.0,b'HB_20_LongA.png',2663.137084152165,79894.11252456495,79894,2663.133333333333
157,2663.1458815,79894.376445,79894,2663.133333333333,2663.712534,79911.37602,79911,2663.7,2665.74604775,79972.3814325,79972,2665.733333333333,0.517188113546581,1,1,2,1,2.0,3.0,b'NB_16_LongA.png',2666.2632358635465,79987.8970759064,79987,2666.233333333333
158,2666.28068325,79988.4204975,79988,2666.266666666667,2666.8472844999997,80005.41853499999,80005,2666.8333333333335,2668.88082125,80066.4246375,80066,2668.866666666667,0.015080294688232243,3,1,4,1,2.0,1.0,b'HB_51_ShortA.png',2668.895901544688,80066.87704634064,80066,2668.866666666667
159,2668.9043187499997,80067.12956249999,80067,2668.9,2669.4875632499998,80084.6268975,80084,2669.4666666666667,2671.52111625,80145.6334875,80145,2671.5,0.42562759129941696,1,1,7,2,1.0,3.0,b'NB_26_ShortA.png',2671.9467438412994,80158.40231523899,80158,2671.9333333333334
160,2671.9605967499997,80158.81790249998,80158,2671.9333333333334,2672.5106885,80175.320655,80175,2672.5,2674.54426075,80236.3278225,80236,2674.5333333333333,2.895010833941342,3,1,3,1,2.0,2.0,b'HB_45_LongA.png',2677.4392715839413,80323.17814751824,80323,2677.4333333333334
161,2677.4521725,80323.565175,80323,2677.4333333333334,2678.00215575,80340.0646725,80340,2678.0,2680.03565425,80401.0696275,80401,2680.0333333333333,1.5386056199349696,2,1,2,1,2.0,3.0,b'SB_19_LongA.png',2681.574259869935,80447.22779609804,80447,2681.5666666666666
162,2681.5876614999997,80447.62984499999,80447,2681.5666666666666,2682.12094575,80463.6283725,80463,2682.1,2684.15433525,80524.63005749999,80524,2684.133333333333,0.6237268999393564,2,2,7,2,2.0,3.0,b'SB_33_ShortA.png',2684.778062149939,80543.34186449817,80543,2684.766666666667
163,2684.7926585,80543.779755,80543,2684.766666666667,2685.3759915,80561.279745,80561,2685.366666666667,2687.4094305,80622.28291499999,80622,2687.4,2.5219873743044445,1,2,2,1,1.0,3.0,b'NB_13_LongA.png',2689.9314178743043,80697.94253622912,80697,2689.9
164,2689.9411065,80698.233195,80698,2689.9333333333334,2690.4577635,80713.732905,80713,2690.4333333333334,2692.4911534999997,80774.73460499999,80774,2692.4666666666667,0.5222861944203032,1,2,7,2,2.0,3.0,b'NB_27_ShortA.png',2693.01343969442,80790.4031908326,80790,2693.0
165,2693.0169735,80790.509205,80790,2693.0,2693.6002034999997,80808.006105,80808,2693.6,2695.633689,80869.01066999999,80869,2695.633333333333,2.1556728666182607,3,1,4,1,2.0,1.0,b'HB_1_ShortA.png',2697.789361866618,80933.68085599854,80933,2697.766666666667
166,2697.79306675,80933.7920025,80933,2697.766666666667,2698.30971375,80949.2914125,80949,2698.3,2700.34332775,81010.2998325,81010,2700.3333333333335,-0.06403083792247344,2,1,7,2,1.0,3.0,b'SB_42_ShortA.png',2700.2792969120774,81008.37890736232,81008,2700.266666666667
167,2700.2908119999997,81008.72436,81008,2700.266666666667,2700.8239949999997,81024.71985,81024,2700.8,2702.85762875,81085.7288625,81085,2702.8333333333335,-0.23982458213868085,1,2,2,1,1.0,3.0,b'NB_6_LongA.png',2702.6178041678613,81078.53412503583,81078,2702.6
168,2702.63626875,81079.0880625,81079,2702.633333333333,2703.20280225,81096.08406749999,81096,2703.2,2705.2363539999997,81157.09061999999,81157,2705.233333333333,0.10955981380539015,2,1,7,2,1.0,3.0,b'SB_6_ShortA.png',2705.345913813805,81160.37741441415,81160,2705.3333333333335
169,2705.364838,81160.94514,81160,2705.3333333333335,2705.88135975,81176.4407925,81176,2705.866666666667,2707.91489425,81237.4468275,81237,2707.9,2.034929169130919,2,2,2,1,1.0,3.0,b'SB_59_LongA.png',2709.949823419131,81298.49470257392,81298,2709.9333333333334
170,2709.9560294999997,81298.680885,81298,2709.9333333333334,2710.5059935,81315.17980499999,81315,2710.5,2712.53955025,81376.1865075,81376,2712.5333333333333,2.951902875356609,3,1,6,2,1.0,2.0,b'HB_2_LongA.png',2715.4914531253567,81464.7435937607,81464,2715.4666666666667
171,2715.535409,81466.06227,81466,2715.5333333333333,2716.0520375,81481.56112500001,81481,2716.0333333333333,2718.0853855,81542.561565,81542,2718.0666666666666,2.6118647031398723,3,1,5,2,1.0,1.0,b'HB_32_ShortA.png',2720.69725020314,81620.91750609419,81620,2720.6666666666665
172,2720.7135255,81621.40576499999,81621,2720.7,2721.29667875,81638.9003625,81638,2721.266666666667,2723.330089,81699.90267,81699,2723.3,0.45729338815726805,3,2,6,2,2.0,2.0,b'HB_25_ShortA.png',2723.7873823881573,81713.62147164471,81713,2723.766666666667
173,2723.8015862499997,81714.04758749998,81714,2723.8,2724.334891,81730.04673,81730,2724.3333333333335,2726.368387,81791.05161,81791,2726.366666666667,0.4840769007860217,2,1,2,1,2.0,3.0,b'SB_10_ShortA.png',2726.852463900786,81805.57391702358,81805,2726.8333333333335
174,2726.8643875,81805.931625,81805,2726.8333333333335,2727.3810005,81821.430015,81821,2727.366666666667,2729.4145255,81882.435765,81882,2729.4,1.501566805440234,3,2,4,1,1.0,1.0,b'HB_55_LongA.png',2730.91609230544,81927.48276916321,81927,2730.9
175,2730.93270675,81927.9812025,81927,2730.9,2731.4159339999997,81942.47802,81942,2731.4,2733.44943475,82003.4830425,82003,2733.4333333333334,1.1838914545587613,3,1,5,2,1.0,1.0,b'HB_15_LongA.png',2734.6333262045587,82038.99978613676,82038,2734.6
176,2734.649118,82039.47353999999,82039,2734.633333333333,2735.215651,82056.46953,82056,2735.2,2737.2490095,82117.47028499999,82117,2737.233333333333,-0.0750574103803956,1,1,6,2,1.0,2.0,b'NB_19_LongA.png',2737.1739520896194,82115.21856268858,82115,2737.1666666666665
177,2737.18570775,82115.57123249999,82115,2737.1666666666665,2737.7189802499997,82131.56940749999,82131,2737.7,2739.7523495,82192.570485,82192,2739.733333333333,0.840889707847964,1,1,7,2,1.0,3.0,b'NB_9_ShortA.png',2740.593239207848,82217.79717623544,82217,2740.5666666666666
178,2740.60567275,82218.1701825,82218,2740.6,2741.1390134999997,82234.170405,82234,2741.133333333333,2743.1725577499997,82295.1767325,82295,2743.1666666666665,1.8959641339752125,1,1,2,1,2.0,3.0,b'NB_28_LongA.png',2745.068521883975,82352.05565651925,82352,2745.0666666666666
179,2745.10098425,82353.0295275,82353,2745.1,2745.67933525,82370.38005749999,82370,2745.6666666666665,2747.72741425,82431.8224275,82431,2747.7,1.3800893631123472,2,1,2,1,2.0,3.0,b'SB_30_ShortA.png',2749.1075036131124,82473.22510839337,82473,2749.1
180,2749.1175925,82473.527775,82473,2749.1,2749.73446775,82492.0340325,82492,2749.733333333333,2751.8062529999997,82554.18758999999,82554,2751.8,1.1180149209030787,2,2,2,1,1.0,3.0,b'SB_30_LongA.png',2752.924267920903,82587.72803762708,82587,2752.9
