trial_num,fixcross_time,fixation_HZ,fixation_bin,fixation_regarded,start_time,Fstart_HZ,Fstart_bin,Fstart_regarded,stop_time,Fstop_HZ,Fstop_bin,Fstop_regarded,RT,boundary_type,key,resp_value,leftright,accuracy,confidence,frameName,response_time,response_HZ,response_bin,response_regarded
1,2135.71283925,64071.38517749999,64071,2135.7,2136.3748545,64091.245635,64091,2136.366666666667,2138.4283235,64152.84970499999,64152,2138.4,1.647350848536007,1,2,6,2,2.0,2.0,b'NB_5_ShortA.png',2140.075674348536,64202.27023045607,64202,2140.0666666666666
2,2140.112681,64203.380430000005,64203,2140.1,2140.7747185,64223.24155499999,64223,2140.766666666667,2142.806658,64284.19974,64284,2142.8,1.325622739852406,3,1,3,1,2.0,2.0,b'HB_47_LongA.png',2144.1322807398524,64323.96842219557,64323,2144.1
3,2144.15218875,64324.5656625,64324,2144.133333333333,2144.8345677499997,64345.03703249999,64345,2144.8333333333335,2146.8893909999997,64406.68172999999,64406,2146.866666666667,3.252447279752232,3,2,6,2,2.0,2.0,b'HB_1_LongA.png',2150.141838279752,64504.255148392556,64504,2150.133333333333
4,2150.1804435,64505.413304999995,64505,2150.1666666666665,2150.7824689999998,64523.47407,64523,2150.766666666667,2152.813913,64584.41739,64584,2152.8,2.8765192991122603,3,1,3,1,2.0,2.0,b'HB_54_LongA.png',2155.690432299112,64670.71296897337,64670,2155.6666666666665
5,2155.71386025,64671.4158075,64671,2155.7,2156.35602175,64690.6806525,64690,2156.3333333333335,2158.38728425,64751.6185275,64751,2158.366666666667,1.5952214089920744,1,1,3,1,2.0,2.0,b'NB_12_ShortA.png',2159.982505658992,64799.475169769765,64799,2159.9666666666667
6,2160.0172625,64800.517875,64800,2160.0,2160.5791455,64817.374364999996,64817,2160.5666666666666,2162.60990425,64878.2971275,64878,2162.6,1.5407245997339487,3,2,6,2,2.0,2.0,b'HB_17_LongA.png',2164.150628849734,64924.51886549202,64924,2164.133333333333
7,2164.16621175,64924.9863525,64924,2164.133333333333,2164.768431,64943.05293,64943,2164.766666666667,2166.799101,65003.97303,65003,2166.766666666667,1.7311206919839606,2,1,3,1,2.0,2.0,b'SB_33_ShortA.png',2168.530221691984,65055.90665075952,65055,2168.5
8,2168.5365429999997,65056.096289999994,65056,2168.5333333333333,2169.1187125,65073.561375000005,65073,2169.1,2171.1498687499998,65134.496062499995,65134,2171.133333333333,0.5993895400315523,3,1,4,1,2.0,1.0,b'HB_53_ShortA.png',2171.7492582900313,65152.47774870094,65152,2171.733333333333
9,2171.7655234999997,65152.965704999995,65152,2171.733333333333,2172.387615,65171.628450000004,65171,2172.366666666667,2174.418914,65232.56741999999,65232,2174.4,1.766323569812812,2,2,6,2,2.0,2.0,b'SB_60_ShortA.png',2176.1852375698127,65285.55712709438,65285,2176.1666666666665
10,2176.209681,65286.290429999994,65286,2176.2,2176.8319845,65304.959535,65304,2176.8,2178.86270125,65365.8810375,65365,2178.8333333333335,3.327673835447058,3,1,3,1,2.0,2.0,b'HB_12_LongA.png',2182.190375085447,65465.711252563415,65465,2182.1666666666665
11,2182.2116565,65466.349695000004,65466,2182.2,2182.8337395,65485.012185,65485,2182.8333333333335,2184.864455,65545.93364999999,65545,2184.8333333333335,2.13147476001177,3,1,3,1,2.0,2.0,b'HB_43_ShortA.png',2186.9959297600117,65609.87789280034,65609,2186.9666666666667
12,2187.0189745,65610.56923499999,65610,2187.0,2187.66116325,65629.8348975,65629,2187.633333333333,2189.692154,65690.76462,65690,2189.6666666666665,1.5870162103092298,1,1,3,1,2.0,2.0,b'NB_4_LongA.png',2191.279170210309,65738.37510630928,65738,2191.266666666667
13,2191.28987375,65738.6962125,65738,2191.266666666667,2191.871788,65756.15364,65756,2191.866666666667,2193.9024692499997,65817.07407749999,65817,2193.9,2.7066262892913073,3,1,3,1,2.0,2.0,b'HB_36_LongA.png',2196.609095539291,65898.27286617873,65898,2196.6
14,2196.61843775,65898.55313249999,65898,2196.6,2197.280823,65918.42469,65918,2197.266666666667,2199.3115442499998,65979.3463275,65979,2199.3,2.7231054657604545,3,1,3,1,2.0,2.0,b'HB_14_LongA.png',2202.03464971576,66061.03949147281,66061,2202.0333333333333
15,2202.04822525,66061.4467575,66061,2202.0333333333333,2202.6703005,66080.109015,66080,2202.6666666666665,2204.7016034999997,66141.048105,66141,2204.7,1.5606623033527285,1,2,6,2,2.0,2.0,b'NB_23_ShortA.png',2206.2622658033524,66187.86797410058,66187,2206.233333333333
16,2206.274051,66188.22153,66188,2206.266666666667,2206.87631875,66206.2895625,66206,2206.866666666667,2208.9074075,66267.22222499999,66267,2208.9,2.077213684329763,3,2,6,2,2.0,2.0,b'HB_28_ShortA.png',2210.9846211843296,66329.53863552988,66329,2210.9666666666667
17,2210.99087275,66329.7261825,66329,2210.9666666666667,2211.63295325,66348.98859749999,66348,2211.6,2213.664339,66409.93016999999,66409,2213.633333333333,3.2366826019715518,3,1,4,1,2.0,1.0,b'HB_24_ShortA.png',2216.9010216019715,66507.03064805914,66507,2216.9
18,2216.9163909999997,66507.49173,66507,2216.9,2217.55884125,66526.7652375,66526,2217.5333333333333,2219.58960825,66587.6882475,66587,2219.5666666666666,2.0328026296338066,1,2,6,2,2.0,2.0,b'NB_25_ShortA.png',2221.6224108796337,66648.67232638902,66648,2221.6
19,2221.6352374999997,66649.05712499999,66649,2221.633333333333,2222.257339,66667.72016999999,66667,2222.233333333333,2224.28802175,66728.6406525,66728,2224.266666666667,1.9543881143908948,1,2,6,2,2.0,2.0,b'NB_3_LongA.png',2226.242409864391,66787.27229593173,66787,2226.233333333333
20,2226.2522865,66787.568595,66787,2226.233333333333,2226.85432275,66805.6296825,66805,2226.8333333333335,2228.88567725,66866.5703175,66866,2228.866666666667,1.609390628989786,2,2,6,2,2.0,2.0,b'SB_2_shortA.png',2230.4950678789896,66914.85203636969,66914,2230.4666666666667
21,2230.51349325,66915.4047975,66915,2230.5,2231.1558367499997,66934.6751025,66934,2231.133333333333,2233.186448,66995.59344,66995,2233.1666666666665,1.3761554214870557,2,2,6,2,2.0,2.0,b'SB_45_LongA.png',2234.562603421487,67036.87810264461,67036,2234.5333333333333
22,2234.5685372499997,67037.05611749999,67037,2234.5666666666666,2235.21069275,67056.3207825,67056,2235.2,2237.24127675,67117.2383025,67117,2237.233333333333,1.5138966768281534,1,1,3,1,2.0,2.0,b'NB_16_LongA.png',2238.755173426828,67162.65520280485,67162,2238.733333333333
23,2238.77364525,67163.20935749999,67163,2238.766666666667,2239.3959152499997,67181.87745749998,67181,2239.366666666667,2241.427197,67242.81591,67242,2241.4,2.5592559275683016,3,2,3,1,1.0,2.0,b'HB_48_LongA.png',2243.9864529275683,67319.59358782705,67319,2243.9666666666667
24,2244.007065,67320.21195,67320,2244.0,2244.62918975,67338.8756925,67338,2244.6,2246.6604697499997,67399.81409249999,67399,2246.633333333333,1.7777135811047629,2,1,3,1,2.0,2.0,b'SB_16_ShortA.png',2248.4381833311045,67453.14549993313,67453,2248.4333333333334
25,2248.44447325,67453.33419750001,67453,2248.4333333333334,2249.06656625,67471.9969875,67471,2249.0333333333333,2251.09737575,67532.9212725,67532,2251.0666666666666,2.307732451008633,3,1,3,1,2.0,2.0,b'HB_30_ShortA.png',2253.4051082010087,67602.15324603026,67602,2253.4
26,2253.42855325,67602.8565975,67602,2253.4,2254.05067375,67621.5202125,67621,2254.0333333333333,2256.08182525,67682.45475749999,67682,2256.0666666666666,0.7657408607192338,3,2,6,2,2.0,2.0,b'HB_51_ShortA.png',2256.847566110719,67705.42698332157,67705,2256.8333333333335
27,2256.86589775,67705.9769325,67705,2256.8333333333335,2257.46794675,67724.0384025,67724,2257.4666666666667,2259.49856625,67784.9569875,67784,2259.4666666666667,1.8334871721453965,1,1,3,1,2.0,2.0,b'NB_2_ShortA.png',2261.3320534221452,67839.96160266436,67839,2261.3
28,2261.3567964999997,67840.703895,67840,2261.3333333333335,2262.01902225,67860.5706675,67860,2262.0,2264.050284,67921.50852,67921,2264.0333333333333,1.4940199136035517,2,1,3,1,2.0,2.0,b'SB_37_LongA.png',2265.5443039136035,67966.32911740811,67966,2265.5333333333333
29,2265.55008025,67966.5024075,67966,2265.5333333333333,2266.1925337499997,67985.77601249999,67985,2266.1666666666665,2268.22381825,68046.7145475,68046,2268.2,2.298302843584679,3,1,3,1,2.0,2.0,b'HB_25_LongA.png',2270.5221210935847,68115.66363280754,68115,2270.5
30,2270.537326,68116.11978000001,68116,2270.5333333333333,2271.1192847499997,68133.57854249999,68133,2271.1,2273.1500465,68194.501395,68194,2273.133333333333,1.454456984763965,1,1,3,1,2.0,2.0,b'NB_30_ShortA.png',2274.604503484764,68238.13510454292,68238,2274.6
31,2274.6284004999998,68238.852015,68238,2274.6,2275.2304205,68256.91261500001,68256,2275.2,2277.2616875,68317.85062499999,68317,2277.233333333333,1.9491069692885503,2,2,6,2,2.0,2.0,b'SB_22_ShortA.png',2279.2107944692884,68376.32383407865,68376,2279.2
32,2279.22308625,68376.6925875,68376,2279.2,2279.8252875,68394.75862499999,68394,2279.8,2281.85657925,68455.6973775,68455,2281.8333333333335,3.515082865138538,3,2,3,1,1.0,2.0,b'HB_23_ShortA.png',2285.3716621151384,68561.14986345415,68561,2285.366666666667
33,2285.39643075,68561.8929225,68561,2285.366666666667,2286.01851575,68580.5554725,68580,2286.0,2288.04970775,68641.4912325,68641,2288.0333333333333,1.67587782361079,3,2,6,2,2.0,2.0,b'HB_52_LongA.png',2289.7255855736107,68691.76756720833,68691,2289.7
34,2289.7451335,68692.354005,68692,2289.733333333333,2290.38730275,68711.6190825,68711,2290.366666666667,2292.41806275,68772.5418825,68772,2292.4,1.415094286436215,1,1,3,1,2.0,2.0,b'NB_13_ShortA.png',2293.833157036436,68814.99471109308,68814,2293.8
35,2293.857254,68815.71762,68815,2293.8333333333335,2294.4189615,68832.568845,68832,2294.4,2296.4500802499997,68893.5024075,68893,2296.4333333333334,1.585880534723401,1,1,3,1,2.0,2.0,b'NB_11_LongA.png',2298.035960784723,68941.0788235417,68941,2298.0333333333333
36,2298.043312,68941.29935999999,68941,2298.0333333333333,2298.6653935,68959.961805,68959,2298.633333333333,2300.6966697499997,69020.90009249999,69020,2300.6666666666665,2.7994649057509378,3,2,3,1,1.0,2.0,b'HB_39_ShortA.png',2303.4961346557507,69104.88403967251,69104,2303.4666666666667
37,2303.50357,69105.1071,69105,2303.5,2304.16581925,69124.97457749999,69124,2304.133333333333,2306.19704775,69185.9114325,69185,2306.1666666666665,1.6805399002041668,1,2,6,2,2.0,2.0,b'NB_15_ShortA.png',2307.877587650204,69236.32762950612,69236,2307.866666666667
38,2307.8857555,69236.572665,69236,2307.866666666667,2308.4678085,69254.034255,69254,2308.4666666666667,2310.4991059999998,69314.97317999999,69314,2310.4666666666667,1.458568337955512,1,1,3,1,2.0,2.0,b'NB_10_LongA.png',2311.9576743379553,69358.73023013865,69358,2311.9333333333334
39,2311.97038625,69359.1115875,69359,2311.9666666666667,2312.5727695,69377.183085,69377,2312.5666666666666,2314.6034637499997,69438.1039125,69438,2314.6,1.6349317347630858,2,1,3,1,2.0,2.0,b'SB_55_ShortA.png',2316.238395484763,69487.15186454289,69487,2316.233333333333
40,2316.2450894999997,69487.35268499999,69487,2316.233333333333,2316.8671655,69506.014965,69506,2316.866666666667,2318.8984545,69566.953635,69566,2318.866666666667,1.2075807942310348,1,2,6,2,2.0,2.0,b'NB_18_LongA.png',2320.106035294231,69603.18105882693,69603,2320.1
41,2320.1297182499998,69603.8915475,69603,2320.1,2320.7320055,69621.960165,69621,2320.7,2322.7627064999997,69682.881195,69682,2322.733333333333,1.8936613168334588,2,1,3,1,2.0,2.0,b'SB_18_LongA.png',2324.656367816833,69739.691034505,69739,2324.633333333333
42,2324.6784857499997,69740.35457249999,69740,2324.6666666666665,2325.2805157499997,69758.4154725,69758,2325.266666666667,2327.311805,69819.35415,69819,2327.3,2.0840558726340532,2,2,6,2,2.0,2.0,b'SB_35_ShortA.png',2329.395860872634,69881.87582617902,69881,2329.366666666667
43,2329.41586475,69882.4759425,69882,2329.4,2330.0178845,69900.536535,69900,2330.0,2332.04916825,69961.4750475,69961,2332.0333333333333,1.8509008856490254,1,2,6,2,2.0,2.0,b'NB_7_LongA.png',2333.900069135649,70017.00207406947,70017,2333.9
44,2333.91801825,70017.5405475,70017,2333.9,2334.54040875,70036.2122625,70036,2334.5333333333333,2336.5711225,70097.133675,70097,2336.5666666666666,1.628003970370628,2,2,6,2,2.0,2.0,b'SB_44_LongA.png',2338.1991264703706,70145.97379411112,70145,2338.1666666666665
45,2338.22353575,70146.70607249999,70146,2338.2,2338.8057129999997,70164.17138999999,70164,2338.8,2340.83641325,70225.0923975,70225,2340.8333333333335,3.123985424055718,3,2,3,1,1.0,2.0,b'HB_56_LongA.png',2343.960398674056,70318.81196022168,70318,2343.9333333333334
46,2343.96952925,70319.08587750001,70319,2343.9666666666667,2344.5314165,70335.942495,70335,2344.5,2346.56265175,70396.8795525,70396,2346.5333333333333,6.863946889759973,3,1,3,1,2.0,2.0,b'HB_3_LongA.png',2353.42659863976,70602.7979591928,70602,2353.4
47,2353.447009,70603.41027,70603,2353.4333333333334,2354.14946725,70624.4840175,70624,2354.133333333333,2356.1808352499997,70685.42505749999,70685,2356.1666666666665,1.2461914457380772,3,2,6,2,2.0,2.0,b'HB_46_ShortA.png',2357.427026695738,70722.81080087213,70722,2357.4
48,2357.4485685,70723.457055,70723,2357.4333333333334,2358.0706622499997,70742.11986749999,70742,2358.0666666666666,2360.1014352499997,70803.04305749999,70803,2360.1,1.4928491818718612,1,2,6,2,2.0,2.0,b'NB_27_ShortA.png',2361.5942844318715,70847.82853295615,70847,2361.5666666666666
49,2361.60518375,70848.1555125,70848,2361.6,2362.1869134999997,70865.60740499999,70865,2362.1666666666665,2364.21842575,70926.5527725,70926,2364.2,1.5700083136325702,2,2,6,2,2.0,2.0,b'SB_40_LongA.png',2365.7884340636324,70973.65302190898,70973,2365.766666666667
50,2365.8047147499997,70974.1414425,70974,2365.8,2366.48697925,70994.60937749999,70994,2366.4666666666667,2368.5182055,71055.546165,71055,2368.5,1.9486842034384608,2,1,3,1,2.0,2.0,b'SB_14_LongA.png',2370.4668897034385,71114.00669110316,71114,2370.4666666666667
51,2370.48001775,71114.4005325,71114,2370.4666666666667,2371.08210625,71132.46318749999,71132,2371.0666666666666,2373.113699,71193.41097,71193,2373.1,1.960010881535709,3,2,3,1,1.0,2.0,b'HB_19_LongA.png',2375.0737098815357,71252.21129644607,71252,2375.0666666666666
52,2375.098527,71252.95581,71252,2375.0666666666666,2375.76082775,71272.8248325,71272,2375.733333333333,2377.79163625,71333.74908750001,71333,2377.766666666667,1.6275946074165404,1,1,3,1,2.0,2.0,b'NB_19_ShortA.png',2379.4192308574166,71382.5769257225,71382,2379.4
53,2379.44383975,71383.3151925,71383,2379.4333333333334,2380.0659257499997,71401.97777249999,71401,2380.0333333333333,2382.097262,71462.91785999999,71462,2382.0666666666666,1.7730334611842409,2,2,6,2,2.0,2.0,b'SB_31_ShortA.png',2383.870295461184,71516.10886383551,71516,2383.866666666667
54,2383.894339,71516.83017,71516,2383.866666666667,2384.4963212499997,71534.88963749999,71534,2384.4666666666667,2386.5275054999997,71595.82516499999,71595,2386.5,1.7112393712159246,2,2,6,2,2.0,2.0,b'SB_13_LongA.png',2388.2387448712157,71647.16234613647,71647,2388.233333333333
55,2388.2633189999997,71647.89957,71647,2388.233333333333,2388.92539925,71667.76197749999,71667,2388.9,2390.9566864999997,71728.70059499999,71728,2390.9333333333334,1.7344304505968466,2,2,6,2,2.0,2.0,b'SB_17_LongA.png',2392.6911169505966,71780.7335085179,71780,2392.6666666666665
56,2392.71380925,71781.4142775,71781,2392.7,2393.3561955,71800.685865,71800,2393.3333333333335,2395.38745725,71861.6237175,71861,2395.366666666667,1.7889647602569312,1,2,6,2,2.0,2.0,b'NB_30_LongA.png',2397.176422010257,71915.2926603077,71915,2397.1666666666665
57,2397.194328,71915.82984,71915,2397.1666666666665,2397.836551,71935.09653,71935,2397.8333333333335,2399.8679387499997,71996.03816249999,71996,2399.866666666667,1.644952493836172,1,2,6,2,2.0,2.0,b'NB_15_LongA.png',2401.512891243836,72045.38673731507,72045,2401.5
58,2401.5223552499997,72045.67065749998,72045,2401.5,2402.1243744999997,72063.73123499998,72063,2402.1,2404.155749,72124.67247,72124,2404.133333333333,1.5396801906172186,2,2,6,2,2.0,2.0,b'SB_25_LongA.png',2405.6954291906172,72170.86287571852,72170,2405.6666666666665
59,2405.700579,72171.01737,72171,2405.7,2406.36317,72190.89510000001,72190,2406.3333333333335,2408.3942305,72251.826915,72251,2408.366666666667,1.6465276053640991,3,1,6,2,1.0,2.0,b'HB_22_LongA.png',2410.040758105364,72301.22274316092,72301,2410.0333333333333
60,2410.05467475,72301.6402425,72301,2410.0333333333333,2410.696877,72320.90630999999,72320,2410.6666666666665,2412.7277675,72381.833025,72381,2412.7,1.935011968598701,2,1,3,1,2.0,2.0,b'SB_4_ShortA.png',2414.6627794685987,72439.88338405796,72439,2414.633333333333
61,2414.6684305,72440.052915,72440,2414.6666666666665,2415.31073525,72459.3220575,72459,2415.3,2417.3420257499997,72520.2607725,72520,2417.3333333333335,1.6275088002439588,1,1,3,1,2.0,2.0,b'NB_8_LongA.png',2418.9695345502437,72569.08603650732,72569,2418.9666666666667
62,2418.97892375,72569.3677125,72569,2418.9666666666667,2419.6211005,72588.633015,72588,2419.6,2421.6518935,72649.556805,72649,2421.633333333333,1.6013658402953297,2,2,6,2,2.0,2.0,b'SB_38_ShortA.png',2423.2532593402952,72697.59778020886,72697,2423.233333333333
63,2423.2722995,72698.168985,72698,2423.266666666667,2423.8942985,72716.82895499999,72716,2423.866666666667,2425.925684,72777.77051999999,72777,2425.9,0.1161150592379272,3,2,3,1,1.0,2.0,b'HB_6_ShortA.png',2426.0417990592377,72781.25397177713,72781,2426.0333333333333
64,2426.05775,72781.7325,72781,2426.0333333333333,2426.73992775,72802.1978325,72802,2426.733333333333,2428.7711795,72863.135385,72863,2428.766666666667,1.9483302094740793,2,2,6,2,2.0,2.0,b'SB_28_ShortA.png',2430.719509709474,72921.58529128422,72921,2430.7
65,2430.73124925,72921.9374775,72921,2430.7,2431.39367725,72941.8103175,72941,2431.366666666667,2433.424974,73002.74922,73002,2433.4,1.5955626249779016,2,2,6,2,2.0,2.0,b'SB_19_LongA.png',2435.020536624978,73050.61609874933,73050,2435.0
66,2435.0454477499998,73051.36343249999,73051,2435.0333333333333,2435.6876214999998,73070.62864499999,73070,2435.6666666666665,2437.71886525,73131.5659575,73131,2437.7,2.0247537101386115,2,2,6,2,2.0,2.0,b'SB_26_LongA.png',2439.7436189601385,73192.30856880416,73192,2439.733333333333
67,2439.76053,73192.8159,73192,2439.733333333333,2440.3625417499998,73210.87625249999,73210,2440.3333333333335,2442.3932875,73271.798625,73271,2442.366666666667,1.7236905507743359,1,2,6,2,2.0,2.0,b'NB_14_ShortA.png',2444.1169780507744,73323.50934152323,73323,2444.1
68,2444.1301384999997,73323.904155,73323,2444.1,2444.752248,73342.56744,73342,2444.733333333333,2446.783505,73403.50515,73403,2446.766666666667,1.7786201145499945,1,2,6,2,2.0,2.0,b'NB_2_LongA.png',2448.56212511455,73456.8637534365,73456,2448.5333333333333
69,2448.57135825,73457.14074749999,73457,2448.5666666666666,2449.21337925,73476.40137749999,73476,2449.2,2451.2443129999997,73537.32938999998,73537,2451.233333333333,1.4554013719316572,1,1,3,1,2.0,2.0,b'NB_6_ShortA.png',2452.6997143719313,73580.99143115793,73580,2452.6666666666665
70,2452.72440775,73581.7322325,73581,2452.7,2453.3465229999997,73600.39568999999,73600,2453.3333333333335,2455.37782375,73661.3347125,73661,2455.366666666667,1.7686646713409573,2,1,3,1,2.0,2.0,b'SB_58_LongA.png',2457.146488421341,73714.39465264023,73714,2457.133333333333
71,2457.1630167499998,73714.8905025,73714,2457.133333333333,2457.82541,73734.7623,73734,2457.8,2459.8567022499997,73795.70106749999,73795,2459.8333333333335,1.0173136703670025,2,2,6,2,2.0,2.0,b'SB_8_ShortA.png',2460.8740159203667,73826.220477611,73826,2460.866666666667
72,2460.8787967499998,73826.36390249999,73826,2460.866666666667,2461.4809864999997,73844.429595,73844,2461.4666666666667,2463.512181,73905.36543,73905,2463.5,1.6626473643118516,2,2,7,2,2.0,3.0,b'SB_52_LongA.png',2465.174828364312,73955.24485092936,73955,2465.1666666666665
73,2465.19142225,73955.7426675,73955,2465.1666666666665,2465.7932352499997,73973.79705749999,73973,2465.766666666667,2467.8246205,74034.738615,74034,2467.8,1.9814481877256185,2,1,2,1,2.0,3.0,b'SB_7_ShortA.png',2469.8060686877257,74094.18206063176,74094,2469.8
74,2469.8229905,74094.689715,74094,2469.8,2470.4250027499997,74112.75008249999,74112,2470.4,2472.4561825,74173.685475,74173,2472.4333333333334,1.632531548384577,2,1,2,1,2.0,3.0,b'SB_50_LongA.png',2474.0887140483846,74222.66142145154,74222,2474.0666666666666
75,2474.10968525,74223.2905575,74223,2474.1,2474.7317465,74241.952395,74241,2474.7,2476.763035,74302.89105,74302,2476.733333333333,1.722116136108525,1,1,3,1,2.0,2.0,b'NB_26_ShortA.png',2478.4851511361085,74354.55453408326,74354,2478.4666666666667
76,2478.5015937499998,74355.0478125,74355,2478.5,2479.08357,74372.50709999999,74372,2479.0666666666666,2481.114362,74433.43086,74433,2481.1,1.7952843134989962,1,2,6,2,2.0,2.0,b'NB_9_LongA.png',2482.909646313499,74487.28938940496,74487,2482.9
77,2482.9218484999997,74487.65545499999,74487,2482.9,2483.6041137499997,74508.12341249999,74508,2483.6,2485.63507625,74569.0522875,74569,2485.633333333333,1.5592110373545438,2,1,2,1,2.0,3.0,b'SB_32_ShortA.png',2487.1942872873547,74615.82861862064,74615,2487.1666666666665
78,2487.21135325,74616.34059749999,74616,2487.2,2487.8334394999997,74635.003185,74635,2487.8333333333335,2489.86472075,74695.94162249999,74695,2489.8333333333335,2.4978675555903465,3,1,3,1,2.0,2.0,b'HB_20_LongA.png',2492.36258830559,74770.8776491677,74770,2492.3333333333335
79,2492.38746975,74771.6240925,74771,2492.366666666667,2492.9893617499997,74789.6808525,74789,2492.9666666666667,2495.020608,74850.61824,74850,2495.0,1.8021912946132943,2,1,2,1,2.0,3.0,b'SB_11_LongA.png',2496.822799294613,74904.6839788384,74904,2496.8
80,2496.8312082499997,74904.9362475,74904,2496.8,2497.413405,74922.40215,74922,2497.4,2499.4446865,74983.340595,74983,2499.4333333333334,2.026538709644228,2,1,2,1,2.0,3.0,b'SB_15_LongA.png',2501.471225209644,75044.13675628933,75044,2501.4666666666667
81,2501.49596325,75044.87889749999,75044,2501.4666666666667,2502.1582165,75064.746495,75064,2502.133333333333,2504.18952,75125.6856,75125,2504.1666666666665,1.722328450763598,1,2,6,2,2.0,2.0,b'NB_29_ShortA.png',2505.9118484507635,75177.3554535229,75177,2505.9
82,2505.93563525,75178.06905749999,75178,2505.9333333333334,2506.53771775,75196.1315325,75196,2506.5333333333333,2508.56888325,75257.0664975,75257,2508.5666666666666,2.6944938172819093,3,2,6,2,2.0,2.0,b'HB_27_LongA.png',2511.263377067282,75337.90131201845,75337,2511.233333333333
83,2511.2831149999997,75338.49345,75338,2511.266666666667,2511.8650387499997,75355.95116249999,75355,2511.8333333333335,2513.895959,75416.87877,75416,2513.866666666667,1.1836020878981799,1,1,3,1,2.0,2.0,b'NB_26_LongA.png',2515.079561087898,75452.38683263694,75452,2515.0666666666666
84,2515.091194,75452.73582,75452,2515.0666666666666,2515.69321725,75470.7965175,75470,2515.6666666666665,2517.72389225,75531.71676750001,75531,2517.7,1.950597349088639,1,1,3,1,2.0,2.0,b'NB_8_ShortA.png',2519.6744895990887,75590.23468797267,75590,2519.6666666666665
85,2519.697642,75590.92926,75590,2519.6666666666665,2520.31966225,75609.5898675,75609,2520.3,2522.350493,75670.51479,75670,2522.3333333333335,1.740117866662331,3,1,3,1,2.0,2.0,b'HB_38_ShortA.png',2524.0906108666622,75722.71832599987,75722,2524.0666666666666
86,2524.1020725,75723.062175,75723,2524.1,2524.724318,75741.72954,75741,2524.7,2526.75514875,75802.6544625,75802,2526.733333333333,2.180630885763094,3,1,3,1,2.0,2.0,b'HB_13_ShortA.png',2528.935779635763,75868.07338907289,75868,2528.9333333333334
87,2528.95486075,75868.6458225,75868,2528.9333333333334,2529.5769502499998,75887.3085075,75887,2529.5666666666666,2531.6076995,75948.230985,75948,2531.6,2.100954823778011,3,2,3,1,1.0,2.0,b'HB_60_ShortA.png',2533.708654323778,76011.25962971334,76011,2533.7
88,2533.7237255,76011.711765,76011,2533.7,2534.3057089999998,76029.17126999999,76029,2534.3,2536.3363772499997,76090.09131749999,76090,2536.3333333333335,1.8669631551019847,2,1,2,1,2.0,3.0,b'SB_29_ShortA.png',2538.2033404051017,76146.10021215305,76146,2538.2
89,2538.21467275,76146.4401825,76146,2538.2,2538.856839,76165.70517,76165,2538.8333333333335,2540.88811425,76226.64342749999,76226,2540.866666666667,1.8237088844180107,3,2,6,2,2.0,2.0,b'HB_57_LongA.png',2542.711823134418,76281.35469403253,76281,2542.7
90,2542.7315224999998,76281.945675,76281,2542.7,2543.37366875,76301.2100625,76301,2543.366666666667,2545.40485825,76362.1457475,76362,2545.4,1.7280354500981048,2,2,7,2,2.0,3.0,b'SB_43_LongA.png',2547.132893700098,76413.98681100295,76413,2547.1
91,2547.15644575,76414.6933725,76414,2547.133333333333,2547.738582,76432.15746,76432,2547.733333333333,2549.76929475,76493.07884249999,76493,2549.766666666667,1.058698576875031,3,2,3,1,1.0,2.0,b'HB_34_ShortA.png',2550.827993326875,76524.83979980624,76524,2550.8
92,2550.8470212499997,76525.4106375,76525,2550.8333333333335,2551.44904125,76543.4712375,76543,2551.4333333333334,2553.48022525,76604.4067575,76604,2553.4666666666667,1.2450286715757102,3,1,6,2,1.0,2.0,b'HB_11_ShortA.png',2554.7252539215756,76641.75761764726,76641,2554.7
93,2554.7403145,76642.209435,76642,2554.733333333333,2555.36242,76660.8726,76660,2555.3333333333335,2557.393712,76721.81136,76721,2557.366666666667,1.816860999329947,2,1,2,1,2.0,3.0,b'SB_47_LongA.png',2559.21057299933,76776.3171899799,76776,2559.2
94,2559.2219565,76776.658695,76776,2559.2,2559.7839074999997,76793.51722499999,76793,2559.766666666667,2561.8153214999998,76854.459645,76854,2561.8,1.3221703645540401,1,2,6,2,2.0,2.0,b'NB_1_LongA.png',2563.137491864554,76894.12475593662,76894,2563.133333333333
95,2563.147249,76894.41747,76894,2563.133333333333,2563.749484,76912.48452,76912,2563.733333333333,2565.7807645,76973.422935,76973,2565.766666666667,2.1797796566970646,1,1,3,1,2.0,2.0,b'NB_19_LongA.png',2567.960544156697,77038.8163247009,77038,2567.9333333333334
96,2567.9707209999997,77039.12163,77039,2567.9666666666667,2568.6329575,77058.988725,77058,2568.6,2570.66420575,77119.9261725,77119,2570.633333333333,1.4310067545156926,1,2,6,2,2.0,2.0,b'NB_28_LongA.png',2572.0952125045155,77162.85637513547,77162,2572.0666666666666
97,2572.1145859999997,77163.43758,77163,2572.1,2572.756881,77182.70642999999,77182,2572.733333333333,2574.7881912499997,77243.64573749999,77243,2574.766666666667,1.5579312201589346,1,1,6,2,1.0,2.0,b'NB_24_ShortA.png',2576.3461224701587,77290.38367410476,77290,2576.3333333333335
98,2576.36610775,77290.9832325,77290,2576.3333333333335,2577.0284655,77310.853965,77310,2577.0,2579.0597494999997,77371.792485,77371,2579.0333333333333,1.9339152082102373,1,2,6,2,2.0,2.0,b'NB_21_ShortA.png',2580.99366470821,77429.8099412463,77429,2580.9666666666667
99,2581.013656,77430.40968,77430,2581.0,2581.5956295,77447.868885,77447,2581.5666666666666,2583.626859,77508.80577,77508,2583.6,1.8175492323935032,2,1,2,1,2.0,3.0,b'SB_34_LongA.png',2585.4444082323935,77563.33224697181,77563,2585.4333333333334
100,2585.45514925,77563.6544775,77563,2585.4333333333334,2586.05738625,77581.7215875,77581,2586.0333333333333,2588.0881222499997,77642.64366749999,77642,2588.0666666666666,0.9706838490674272,3,1,6,2,1.0,2.0,b'HB_41_LongA.png',2589.058806099067,77671.76418297201,77671,2589.0333333333333
101,2589.07294125,77672.1882375,77672,2589.0666666666666,2589.6953945,77690.861835,77690,2589.6666666666665,2591.72670475,77751.8011425,77751,2591.7,1.230870258063078,1,2,6,2,2.0,2.0,b'NB_13_LongA.png',2592.957575008063,77788.7272502419,77788,2592.9333333333334
102,2592.97645725,77789.2937175,77789,2592.9666666666667,2593.638707,77809.16121,77809,2593.633333333333,2595.6698417499997,77870.09525249999,77870,2595.6666666666665,1.7542204625206068,1,1,6,2,1.0,2.0,b'NB_16_ShortA.png',2597.4240622125203,77922.7218663756,77922,2597.4
103,2597.43826825,77923.1480475,77923,2597.4333333333334,2598.0805609999998,77942.41682999999,77942,2598.0666666666666,2600.11193675,78003.3581025,78003,2600.1,1.6631882479414344,2,1,7,2,1.0,3.0,b'SB_39_ShortA.png',2601.7751249979415,78053.25374993825,78053,2601.766666666667
104,2601.78242675,78053.47280250001,78053,2601.766666666667,2602.3442892499997,78070.32867749999,78070,2602.3333333333335,2604.3756627499997,78131.2698825,78131,2604.366666666667,3.212689967127517,3,2,6,2,2.0,2.0,b'HB_16_ShortA.png',2607.5883527171272,78227.65058151382,78227,2607.5666666666666
105,2607.60625325,78228.1875975,78228,2607.6,2608.24851,78247.4553,78247,2608.233333333333,2610.2792985,78308.37895500001,78308,2610.266666666667,1.7908685664879158,2,1,2,1,2.0,3.0,b'SB_59_LongA.png',2612.070167066488,78362.10501199464,78362,2612.0666666666666
106,2612.092116,78362.76348,78362,2612.0666666666666,2612.69421975,78380.82659249999,78380,2612.6666666666665,2614.72487375,78441.7462125,78441,2614.7,2.207096747471951,3,1,6,2,1.0,2.0,b'HB_50_ShortA.png',2616.931970497472,78507.95911492416,78507,2616.9
107,2616.94305275,78508.2915825,78508,2616.9333333333334,2617.5851724999998,78527.55517499999,78527,2617.5666666666666,2619.6158567499997,78588.47570249999,78588,2619.6,1.8323249571258202,1,1,2,1,2.0,3.0,b'NB_28_ShortA.png',2621.4481817071255,78643.44545121376,78643,2621.4333333333334
108,2621.4709985,78644.129955,78644,2621.4666666666667,2622.05296375,78661.5889125,78661,2622.0333333333333,2624.08435275,78722.53058250001,78722,2624.0666666666666,1.7001422340981662,2,2,7,2,2.0,3.0,b'SB_9_ShortA.png',2625.7844949840983,78773.53484952296,78773,2625.766666666667
109,2625.7980795,78773.942385,78773,2625.766666666667,2626.42019725,78792.6059175,78792,2626.4,2628.451376,78853.54128,78853,2628.4333333333334,2.698146232054569,3,2,6,2,2.0,2.0,b'HB_2_ShortA.png',2631.1495222320546,78934.48566696164,78934,2631.133333333333
110,2631.1708445,78935.125335,78935,2631.1666666666665,2631.81299575,78954.3898725,78954,2631.8,2633.84429675,79015.3289025,79015,2633.8333333333335,1.2703333675162867,3,2,3,1,1.0,2.0,b'HB_26_ShortA.png',2635.1146301175163,79053.43890352549,79053,2635.1
111,2635.1352515,79054.05754499999,79054,2635.133333333333,2635.75731275,79072.7193825,79072,2635.733333333333,2637.7881684999998,79133.64505499999,79133,2637.766666666667,1.7755245716543868,1,1,7,2,1.0,3.0,b'NB_10_ShortA.png',2639.563693071654,79186.91079214962,79186,2639.5333333333333
112,2639.58452275,79187.53568249999,79187,2639.5666666666666,2640.26681875,79208.00456249999,79208,2640.266666666667,2642.2978212499997,79268.93463749999,79268,2642.266666666667,1.4121328587643802,1,2,7,2,2.0,3.0,b'NB_11_ShortA.png',2643.709954108764,79311.29862326292,79311,2643.7
113,2643.72643825,79311.7931475,79311,2643.7,2644.36874725,79331.0624175,79331,2644.366666666667,2646.4003285,79392.009855,79392,2646.4,1.85802225000225,2,2,2,1,1.0,3.0,b'SB_24_LongA.png',2648.258350750002,79447.75052250006,79447,2648.233333333333
114,2648.26363275,79447.9089825,79447,2648.233333333333,2648.88578075,79466.57342249999,79466,2648.866666666667,2650.916768,79527.50304,79527,2650.9,-0.7626387274358422,3,1,3,1,2.0,2.0,b'HB_42_ShortA.png',2650.154129272564,79504.62387817692,79504,2650.133333333333
115,2650.162888,79504.88664,79504,2650.133333333333,2650.82522725,79524.75681749999,79524,2650.8,2652.8564847499997,79585.69454249999,79585,2652.8333333333335,2.312056811992079,3,1,6,2,1.0,2.0,b'HB_35_ShortA.png',2655.168541561992,79655.05624685975,79655,2655.1666666666665
116,2655.1942655,79655.82796499999,79655,2655.1666666666665,2655.7762052499997,79673.2861575,79673,2655.766666666667,2657.80783375,79734.23501250001,79734,2657.8,1.751745831570588,1,1,2,1,2.0,3.0,b'NB_4_ShortA.png',2659.5595795815707,79786.78738744713,79786,2659.5333333333333
117,2659.57279075,79787.1837225,79787,2659.5666666666666,2660.2149485,79806.448455,79806,2660.2,2662.2462265,79867.386795,79867,2662.233333333333,1.3396233398234472,1,1,7,2,1.0,3.0,b'NB_6_LongA.png',2663.5858498398234,79907.5754951947,79907,2663.5666666666666
118,2663.5939169999997,79907.81751,79907,2663.5666666666666,2664.216165,79926.48495,79926,2664.2,2666.24694375,79987.4083125,79987,2666.233333333333,1.84025940077845,2,2,2,1,1.0,3.0,b'SB_10_LongA.png',2668.0872031507784,80042.61609452336,80042,2668.0666666666666
119,2668.103325,80043.09975,80043,2668.1,2668.70535725,80061.1607175,80061,2668.7,2670.7361244999997,80122.083735,80122,2670.733333333333,3.111691119032912,3,2,6,2,2.0,2.0,b'HB_59_LongA.png',2673.8478156190326,80215.43446857098,80215,2673.8333333333335
120,2673.8548929999997,80215.64679,80215,2673.8333333333335,2674.497315,80234.91945,80234,2674.4666666666667,2676.52859925,80295.8579775,80295,2676.5,1.3875183670315892,2,1,2,1,2.0,3.0,b'SB_46_LongA.png',2677.9161176170314,80337.48352851094,80337,2677.9
121,2677.9307612499997,80337.9228375,80337,2677.9,2678.5728962499998,80357.1868875,80357,2678.5666666666666,2680.60433925,80418.1301775,80418,2680.6,1.7068323835264891,1,1,2,1,2.0,3.0,b'NB_17_ShortA.png',2682.3111716335266,80469.3351490058,80469,2682.3
122,2682.3211745,80469.635235,80469,2682.3,2682.9635359999997,80488.90607999999,80488,2682.9333333333334,2684.9941882499998,80549.8256475,80549,2684.9666666666667,3.8296283128438517,3,2,3,1,1.0,2.0,b'HB_18_LongA.png',2688.8238165628436,80664.71449688531,80664,2688.8
123,2688.8465392499998,80665.39617749999,80665,2688.8333333333335,2689.44856,80683.4568,80683,2689.4333333333334,2691.479836,80744.39508,80744,2691.4666666666667,1.4625004949048162,1,2,2,1,1.0,3.0,b'NB_20_LongA.png',2692.942336494905,80788.27009484715,80788,2692.9333333333334
124,2692.95921825,80788.7765475,80788,2692.9333333333334,2693.58172975,80807.45189249999,80807,2693.5666666666666,2695.61293025,80868.3879075,80868,2695.6,1.6753729393240064,1,2,2,1,1.0,3.0,b'NB_27_LongA.png',2697.288303189324,80918.64909567972,80918,2697.266666666667
125,2697.2975535,80918.926605,80918,2697.266666666667,2697.8996015,80936.98804499999,80936,2697.866666666667,2699.93086575,80997.9259725,80997,2699.9,1.5821303124539554,2,1,2,1,2.0,3.0,b'SB_20_ShortA.png',2701.512996062454,81045.38988187362,81045,2701.5
126,2701.5301327499997,81045.90398249999,81045,2701.5,2702.1521815,81064.565445,81064,2702.133333333333,2704.18352,81125.5056,81125,2704.1666666666665,1.3866654405137524,1,1,7,2,1.0,3.0,b'NB_9_ShortA.png',2705.570185440514,81167.10556321542,81167,2705.5666666666666
127,2705.57827825,81167.3483475,81167,2705.5666666666666,2706.20065875,81186.0197625,81186,2706.2,2708.232051,81246.96153,81246,2708.2,-0.2844179415842518,3,1,6,2,1.0,2.0,b'HB_55_ShortA.png',2707.9476330584157,81238.42899175247,81238,2707.9333333333334
128,2707.971783,81239.15349,81239,2707.9666666666667,2708.5537179999997,81256.61153999998,81256,2708.5333333333333,2710.58486975,81317.54609250001,81317,2710.5666666666666,1.4310631604166701,2,1,2,1,2.0,3.0,b'SB_56_LongA.png',2712.0159329104167,81360.47798731251,81360,2712.0
129,2712.026289,81360.78867,81360,2712.0,2712.6887134999997,81380.66140499999,81380,2712.6666666666665,2714.7198962499997,81441.5968875,81441,2714.7,1.7242306608241051,2,1,2,1,2.0,3.0,b'SB_3_ShortA.png',2716.444126910824,81493.32380732472,81493,2716.4333333333334
130,2716.4594835,81493.78450499999,81493,2716.4333333333334,2717.0816025,81512.448075,81512,2717.0666666666666,2719.11298525,81573.38955749999,81573,2719.1,1.199631277588196,2,2,2,1,1.0,3.0,b'SB_1_LongA.png',2720.312616527588,81609.37849582764,81609,2720.3
131,2720.3232555,81609.697665,81609,2720.3,2720.9855755,81629.56726499999,81629,2720.9666666666667,2723.0167429999997,81690.50228999999,81690,2723.0,1.7396724068094045,1,2,2,1,1.0,3.0,b'NB_20_ShortA.png',2724.756415406809,81742.69246220427,81742,2724.733333333333
132,2724.76613025,81742.9839075,81742,2724.733333333333,2725.3883135,81761.649405,81761,2725.366666666667,2727.419114,81822.57342,81822,2727.4,1.6769127803854644,2,1,7,2,1.0,3.0,b'SB_21_ShortA.png',2729.0960267803853,81872.88080341156,81872,2729.0666666666666
133,2729.105372,81873.16116,81873,2729.1,2729.6875099999997,81890.62529999999,81890,2729.6666666666665,2731.7188115,81951.56434499999,81951,2731.7,1.9368483329890296,2,2,2,1,1.0,3.0,b'SB_48_ShortA.png',2733.655659832989,82009.66979498966,82009,2733.633333333333
134,2733.6670139999997,82010.01041999999,82010,2733.6666666666665,2734.30915,82029.2745,82029,2734.3,2736.3404259999998,82090.21277999999,82090,2736.3333333333335,2.6549066016450524,3,1,3,1,2.0,2.0,b'HB_40_LongA.png',2738.995332601645,82169.85997804934,82169,2738.9666666666667
135,2739.00271425,82170.0814275,82170,2739.0,2739.66485975,82189.94579249999,82189,2739.633333333333,2741.69624475,82250.8873425,82250,2741.6666666666665,1.7994196026120335,2,1,2,1,2.0,3.0,b'SB_51_ShortA.png',2743.495664352612,82304.86993057837,82304,2743.4666666666667
136,2743.507395,82305.22185,82305,2743.5,2744.1896245,82325.68873499999,82325,2744.1666666666665,2746.22056475,82386.6169425,82386,2746.2,2.014941615983844,2,2,7,2,2.0,3.0,b'SB_53_ShortA.png',2748.235506365984,82447.06519097951,82447,2748.233333333333
137,2748.2582545,82447.747635,82447,2748.233333333333,2748.8804339999997,82466.41301999999,82466,2748.866666666667,2750.931377,82527.94131,82527,2750.9,2.4629266374977306,3,1,6,2,1.0,2.0,b'HB_37_LongA.png',2753.3943036374976,82601.82910912493,82601,2753.366666666667
138,2753.4175095,82602.525285,82602,2753.4,2754.0597024999997,82621.79107499999,82621,2754.0333333333333,2756.090625,82682.71875,82682,2756.0666666666666,2.3070293727796525,3,1,3,1,2.0,2.0,b'HB_32_ShortA.png',2758.3976543727795,82751.92963118339,82751,2758.366666666667
139,2758.412141,82752.36422999999,82752,2758.4,2759.094459,82772.83377,82772,2759.0666666666666,2761.125353,82833.76058999999,82833,2761.1,1.4796849478734657,1,1,2,1,2.0,3.0,b'NB_23_LongA.png',2762.6050379478734,82878.1511384362,82878,2762.6
140,2762.61570325,82878.4710975,82878,2762.6,2763.2578085,82897.734255,82897,2763.233333333333,2765.288619,82958.65857,82958,2765.266666666667,1.3762956297723576,1,2,7,2,2.0,3.0,b'NB_17_LongA.png',2766.6649146297723,82999.94743889317,82999,2766.633333333333
141,2766.671672,83000.15016,83000,2766.6666666666665,2767.2937739999998,83018.81322,83018,2767.266666666667,2769.32498325,83079.7494975,83079,2769.3,2.0895426342030987,3,1,6,2,1.0,2.0,b'HB_4_LongA.png',2771.414525884203,83142.4357765261,83142,2771.4
142,2771.436611,83143.09833000001,83143,2771.4333333333334,2772.03865675,83161.1597025,83161,2772.0333333333333,2774.06984075,83222.0952225,83222,2774.0666666666666,0.9871848567854613,1,2,7,2,2.0,3.0,b'NB_22_LongA.png',2775.0570256067854,83251.71076820356,83251,2775.0333333333333
143,2775.0659714999997,83251.97914499999,83251,2775.0333333333333,2775.64813,83269.4439,83269,2775.633333333333,2777.679357,83330.38071,83330,2777.6666666666665,1.6997707630507648,2,2,7,2,2.0,3.0,b'SB_49_ShortA.png',2779.3791277630507,83381.37383289152,83381,2779.366666666667
144,2779.3844879999997,83381.53464,83381,2779.366666666667,2779.946529,83398.39587,83398,2779.9333333333334,2781.97772275,83459.3316825,83459,2781.9666666666667,4.941066873841919,3,1,3,1,2.0,2.0,b'HB_45_LongA.png',2786.918789623842,83607.56368871525,83607,2786.9
145,2786.9411314999998,83608.23394499999,83608,2786.9333333333334,2787.5431344999997,83626.294035,83626,2787.5333333333333,2789.5738375,83687.215125,83687,2789.5666666666666,0.6363930943189189,3,1,6,2,1.0,2.0,b'HB_9_ShortA.png',2790.210230594319,83706.30691782957,83706,2790.2
146,2790.2317209999997,83706.95163,83706,2790.2,2790.8136885,83724.410655,83724,2790.8,2792.8449152499998,83785.3474575,83785,2792.8333333333335,1.7561670384602621,1,1,7,2,1.0,3.0,b'NB_3_ShortA.png',2794.60108228846,83838.03246865381,83838,2794.6
147,2794.62272125,83838.68163749999,83838,2794.6,2795.2448325,83857.344975,83857,2795.233333333333,2797.2761185,83918.283555,83918,2797.266666666667,2.5224149567075074,3,1,6,2,1.0,2.0,b'HB_31_LongA.png',2799.7985334567074,83993.95600370123,83993,2799.766666666667
148,2799.82002325,83994.60069749999,83994,2799.8,2800.4018122499997,84012.0543675,84012,2800.4,2802.43327925,84072.9983775,84072,2802.4,2.8559485028963536,3,1,6,2,1.0,2.0,b'HB_49_ShortA.png',2805.2892277528963,84158.67683258689,84158,2805.266666666667
149,2805.30595225,84159.1785675,84159,2805.3,2805.9282964999998,84177.84889499999,84177,2805.9,2807.95972925,84238.7918775,84238,2807.9333333333334,-0.49955492303706706,3,2,3,1,1.0,2.0,b'HB_15_LongA.png',2807.4601743269627,84223.80522980889,84223,2807.4333333333334
150,2807.48126875,84224.43806249999,84224,2807.4666666666667,2808.0432054999997,84241.29616499999,84241,2808.0333333333333,2810.07447275,84302.2341825,84302,2810.0666666666666,2.120378284715116,1,2,2,1,1.0,3.0,b'NB_25_LongA.png',2812.194851034715,84365.84553104146,84365,2812.1666666666665
151,2812.21935975,84366.5807925,84366,2812.2,2812.84129425,84385.2388275,84385,2812.8333333333335,2814.8720022499997,84446.1600675,84446,2814.866666666667,1.4614698815857992,1,2,7,2,2.0,3.0,b'NB_1_ShortA.png',2816.3334721315855,84490.00416394757,84490,2816.3333333333335
152,2816.3540237499997,84490.6207125,84490,2816.3333333333335,2816.99642025,84509.8926075,84509,2816.9666666666667,2819.02759625,84570.8278875,84570,2819.0,1.584150040987879,2,1,2,1,2.0,3.0,b'SB_6_LongA.png',2820.611746290988,84618.35238872963,84618,2820.6
153,2820.620556,84618.61667999999,84618,2820.6,2821.2627605,84637.88281499999,84637,2821.233333333333,2823.294129,84698.82387,84698,2823.266666666667,2.0343174459412694,1,1,7,2,1.0,3.0,b'NB_7_ShortA.png',2825.328446445941,84759.85339337823,84759,2825.3
154,2825.3340749999998,84760.02225,84760,2825.3333333333335,2825.916318,84777.48954,84777,2825.9,2827.94707425,84838.4122275,84838,2827.9333333333334,1.2975244743283838,2,2,2,1,1.0,3.0,b'SB_41_ShortA.png',2829.244598724328,84877.33796172985,84877,2829.233333333333
155,2829.25010575,84877.5031725,84877,2829.233333333333,2829.852269,84895.56807,84895,2829.8333333333335,2831.8832669999997,84956.49801,84956,2831.866666666667,2.8518125255359337,3,1,6,2,1.0,2.0,b'HB_8_LongA.png',2834.7350795255356,85042.05238576607,85042,2834.733333333333
156,2834.759533,85042.78599,85042,2834.733333333333,2835.3414829999997,85060.24449,85060,2835.3333333333335,2837.3722804999998,85121.168415,85121,2837.366666666667,1.5679458032827824,1,1,2,1,2.0,3.0,b'NB_14_LongA.png',2838.9402263032825,85168.20678909848,85168,2838.9333333333334
157,2838.9512259999997,85168.53678,85168,2838.9333333333334,2839.5934275,85187.80282499999,85187,2839.5666666666666,2841.62456975,85248.7370925,85248,2841.6,2.285443330882117,2,1,2,1,2.0,3.0,b'SB_30_LongA.png',2843.910013080882,85317.30039242646,85317,2843.9
158,2843.91930225,85317.5790675,85317,2843.9,2844.5012045,85335.036135,85335,2844.5,2846.53250625,85395.97518750001,85395,2846.5,1.7672599743818864,2,2,2,1,1.0,3.0,b'SB_27_ShortA.png',2848.299766224382,85448.99298673146,85448,2848.266666666667
159,2848.3071674999997,85449.21502499998,85449,2848.3,2848.88911725,85466.67351749999,85466,2848.866666666667,2850.920295,85527.60884999999,85527,2850.9,4.265908292727545,3,2,3,1,1.0,2.0,b'HB_29_ShortA.png',2855.1862032927274,85655.58609878182,85655,2855.1666666666665
160,2855.19350425,85655.8051275,85655,2855.1666666666665,2855.79544575,85673.8633725,85673,2855.766666666667,2857.82677725,85734.8033175,85734,2857.8,1.387684281799011,1,1,2,1,2.0,3.0,b'NB_29_LongA.png',2859.214461531799,85776.43384595397,85776,2859.2
161,2859.22117,85776.6351,85776,2859.2,2859.8831605,85796.494815,85796,2859.866666666667,2861.91455925,85857.4367775,85857,2861.9,1.9384934393456206,2,1,7,2,1.0,3.0,b'SB_36_ShortA.png',2863.8530526893455,85915.59158068037,85915,2863.8333333333335
162,2863.8599262499997,85915.79778749999,85915,2863.8333333333335,2864.5221657499997,85935.66497249999,85935,2864.5,2866.5534395,85996.603185,85996,2866.5333333333333,1.6447378463344648,1,1,2,1,2.0,3.0,b'NB_22_ShortA.png',2868.1981773463344,86045.94532039003,86045,2868.1666666666665
163,2868.2043915,86046.13174499999,86046,2868.2,2868.8064222499997,86064.1926675,86064,2868.8,2870.8371712499998,86125.11513749999,86125,2870.8333333333335,1.8450382717419416,3,2,6,2,2.0,2.0,b'HB_10_ShortA.png',2872.6822095217417,86180.46628565225,86180,2872.6666666666665
164,2872.7040832499997,86181.1224975,86181,2872.7,2873.3664215,86200.99264499999,86200,2873.3333333333335,2875.39758525,86261.92755749999,86261,2875.366666666667,1.838881015428342,3,1,3,1,2.0,2.0,b'HB_44_ShortA.png',2877.236466265428,86317.09398796284,86317,2877.233333333333
165,2877.2434085,86317.302255,86317,2877.233333333333,2877.82540025,86334.76200749999,86334,2877.8,2879.85605125,86395.6815375,86395,2879.8333333333335,1.8212832900462672,2,2,2,1,1.0,3.0,b'SB_42_LongA.png',2881.677334540046,86450.32003620139,86450,2881.6666666666665
166,2881.6886799999997,86450.6604,86450,2881.6666666666665,2882.310739,86469.32217,86469,2882.3,2884.3414922499996,86530.24476749999,86530,2884.3333333333335,0.2226124736480415,3,1,3,1,2.0,2.0,b'HB_58_LongA.png',2884.5641047236477,86536.92314170943,86536,2884.5333333333333
167,2884.5714519999997,86537.14356,86537,2884.5666666666666,2885.153414,86554.60242,86554,2885.133333333333,2887.1842012499997,86615.52603749999,86615,2887.1666666666665,2.6634636109229177,3,2,5,2,2.0,1.0,b'HB_7_ShortA.png',2889.8476648609226,86695.42994582768,86695,2889.8333333333335
168,2889.8655369999997,86695.96611,86695,2889.8333333333335,2890.46756875,86714.0270625,86714,2890.4666666666667,2892.49885125,86774.9655375,86774,2892.4666666666667,1.5037248672451824,1,2,7,2,2.0,3.0,b'NB_12_LongA.png',2894.002576117245,86820.07728351736,86820,2894.0
169,2894.0211725,86820.635175,86820,2894.0,2894.62330075,86838.6990225,86838,2894.6,2896.654647,86899.63940999999,86899,2896.633333333333,3.6811443869955838,3,2,3,1,1.0,2.0,b'HB_21_ShortA.png',2900.3357913869954,87010.07374160986,87010,2900.3333333333335
170,2900.349588,87010.48764,87010,2900.3333333333335,2900.99189275,87029.7567825,87029,2900.9666666666667,2903.0225742499997,87090.6772275,87090,2903.0,1.8204712745500728,1,2,2,1,1.0,3.0,b'NB_18_ShortA.png',2904.84304552455,87145.2913657365,87145,2904.8333333333335
171,2904.848128,87145.44384,87145,2904.8333333333335,2905.4503375,87163.510125,87163,2905.4333333333334,2907.4811725,87224.43517499999,87224,2907.4666666666667,1.6173983954358846,2,2,2,1,1.0,3.0,b'SB_12_ShortA.png',2909.098570895436,87272.95712686307,87272,2909.0666666666666
172,2909.10412225,87273.1236675,87273,2909.1,2909.70626775,87291.1880325,87291,2909.7,2911.737521,87352.12563,87352,2911.733333333333,0.4984234912553802,3,2,6,2,2.0,2.0,b'HB_5_LongA.png',2912.2359444912554,87367.07833473766,87367,2912.233333333333
173,2912.2417782499997,87367.2533475,87367,2912.233333333333,2912.84382125,87385.3146375,87385,2912.8333333333335,2914.87473275,87446.2419825,87446,2914.866666666667,1.3741698912344873,1,2,7,2,2.0,3.0,b'NB_5_LongA.png',2916.2489026412345,87487.46707923703,87487,2916.233333333333
174,2916.2699977499997,87488.09993249999,87488,2916.266666666667,2916.91197375,87507.3592125,87507,2916.9,2918.94295325,87568.2885975,87568,2918.9333333333334,1.6581709830788895,1,2,7,2,2.0,3.0,b'NB_21_LongA.png',2920.6011242330787,87618.03372699236,87618,2920.6
175,2920.6180695,87618.542085,87618,2920.6,2921.24034975,87637.2104925,87637,2921.233333333333,2923.27099675,87698.1299025,87698,2923.266666666667,0.36798461829312146,3,1,6,2,1.0,2.0,b'HB_33_LongA.png',2923.638981368293,87709.1694410488,87709,2923.633333333333
176,2923.6563604999997,87709.690815,87709,2923.633333333333,2924.2786272499998,87728.35881749999,87728,2924.266666666667,2926.30952275,87789.28568249999,87789,2926.3,1.632360894465819,2,1,2,1,2.0,3.0,b'SB_23_LongA.png',2927.9418836444656,87838.25650933397,87838,2927.9333333333334
177,2927.96268475,87838.8805425,87838,2927.9333333333334,2928.54467575,87856.34027249999,87856,2928.5333333333333,2930.57603875,87917.2811625,87917,2930.5666666666666,1.7036629244685173,1,1,7,2,1.0,3.0,b'NB_24_LongA.png',2932.2797016744685,87968.39105023406,87968,2932.266666666667
178,2932.28982625,87968.69478749999,87968,2932.266666666667,2932.9118945,87987.356835,87987,2932.9,2934.9431815,88048.295445,88048,2934.9333333333334,1.1450895437737927,2,2,7,2,2.0,3.0,b'SB_57_ShortA.png',2936.0882710437736,88082.64813131321,88082,2936.0666666666666
179,2936.1448655,88084.345965,88084,2936.133333333333,2936.67670075,88100.30102249999,88100,2936.6666666666665,2938.7420844999997,88162.26253499999,88162,2938.733333333333,1.4806149154901505,2,1,4,1,2.0,1.0,b'SB_30_ShortA.png',2940.22269941549,88206.68098246469,88206,2940.2
180,2940.27156775,88208.1470325,88208,2940.266666666667,2940.80080225,88224.0240675,88224,2940.8,2942.8340175,88285.020525,88285,2942.8333333333335,1.6092628228943795,2,2,6,2,2.0,2.0,b'SB_30_LongA.png',2944.443280322894,88333.29840968683,88333,2944.4333333333334
