trial_num,fixcross_time,fixation_HZ,fixation_bin,fixation_regarded,start_time,Fstart_HZ,Fstart_bin,Fstart_regarded,stop_time,Fstop_HZ,Fstop_bin,Fstop_regarded,RT,boundary_type,key,resp_value,leftright,accuracy,confidence,frameName,response_time,response_HZ,response_bin,response_regarded
1,2267.94999625,68038.4998875,68038,2267.9333333333334,2268.4999374999998,68054.998125,68054,2268.4666666666667,2270.535175,68116.05525,68116,2270.5333333333333,0.0,2,2,1,1,1.0,0.0,b'SB_48_LongA.png',2270.535175,68116.05525,68116,2270.5333333333333
2,2273.4517229999997,68203.55169,68203,2273.4333333333334,2274.034909,68221.04727,68221,2274.0333333333333,2276.0685965,68282.05789499999,68282,2276.0666666666666,1.8583238427527249,2,2,3,1,1.0,2.0,b'SB_12_ShortA.png',2277.9269203427525,68337.80761028257,68337,2277.9
3,2277.9360297499998,68338.08089249999,68338,2277.9333333333334,2278.5192672499998,68355.5780175,68355,2278.5,2280.5528154999997,68416.58446499999,68416,2280.5333333333333,0.0,3,2,1,1,1.0,0.0,b'HB_12_LongA.png',2280.5528154999997,68416.58446499999,68416,2280.5333333333333
4,2284.739192,68542.17576,68542,2284.733333333333,2285.2223925,68556.671775,68556,2285.2,2287.2561115,68617.683345,68617,2287.233333333333,1.6554475351586007,3,2,3,1,1.0,2.0,b'HB_17_ShortA.png',2288.9115590351585,68667.34677105476,68667,2288.9
5,2288.92380225,68667.7140675,68667,2288.9,2289.40710775,68682.2132325,68682,2289.4,2291.440607,68743.21821,68743,2291.4333333333334,3.9322243611095473,3,2,3,1,1.0,2.0,b'HB_42_LongA.png',2295.3728313611095,68861.1849408333,68861,2295.366666666667
6,2295.377707,68861.33121,68861,2295.366666666667,2295.927714,68877.83142,68877,2295.9,2297.9618084999997,68938.854255,68938,2297.9333333333334,3.731424247205723,3,1,6,2,1.0,2.0,b'HB_22_ShortA.png',2301.6932327472055,69050.79698241617,69050,2301.6666666666665
7,2301.7059692499997,69051.1790775,69051,2301.7,2302.1892205,69065.676615,69065,2302.1666666666665,2304.22286325,69126.6858975,69126,2304.2,2.4315474123577587,1,1,6,2,1.0,2.0,b'NB_17_LongA.png',2306.654410662358,69199.63231987074,69199,2306.633333333333
8,2306.668893,69200.06679,69200,2306.6666666666665,2307.23542575,69217.06277250001,69217,2307.233333333333,2309.26897875,69278.0693625,69278,2309.266666666667,1.9440758915734477,3,1,6,2,1.0,2.0,b'HB_7_LongA.png',2311.2130546415733,69336.3916392472,69336,2311.2
9,2311.2169584999997,69336.50875499999,69336,2311.2,2311.8001947499997,69354.00584249999,69354,2311.8,2313.83387575,69415.0162725,69415,2313.8333333333335,2.3214446227648295,2,1,6,2,1.0,2.0,b'SB_1_ShortA.png',2316.155320372765,69484.65961118294,69484,2316.133333333333
10,2316.16240875,69484.8722625,69484,2316.133333333333,2316.6622859999998,69499.86858,69499,2316.633333333333,2318.69596475,69560.8789425,69560,2318.6666666666665,1.391134120465722,3,2,3,1,1.0,2.0,b'HB_13_ShortA.png',2320.0870988704655,69602.61296611397,69602,2320.0666666666666
11,2320.09549425,69602.86482749999,69602,2320.0666666666666,2320.67869325,69620.3607975,69620,2320.6666666666665,2322.7122815,69681.368445,69681,2322.7,2.130926092446316,3,1,6,2,1.0,2.0,b'HB_57_ShortA.png',2324.843207592446,69745.29622777339,69745,2324.8333333333335
12,2324.84838025,69745.4514075,69745,2324.8333333333335,2325.38167775,69761.4503325,69761,2325.366666666667,2327.415336,69822.46008,69822,2327.4,2.263957356568426,3,1,6,2,1.0,2.0,b'HB_19_LongA.png',2329.6792933565685,69890.37880069706,69890,2329.6666666666665
13,2329.68394775,69890.51843249999,69890,2329.6666666666665,2330.28386225,69908.5158675,69908,2330.266666666667,2332.3175539999997,69969.52661999999,69969,2332.3,-0.33089678012765944,1,1,6,2,1.0,2.0,b'NB_14_LongA.png',2331.986657219872,69959.59971659616,69959,2331.9666666666667
14,2332.00514275,69960.15428249999,69960,2332.0,2332.50497925,69975.1493775,69975,2332.5,2334.5387259999998,70036.16178,70036,2334.5333333333333,2.7266972705256194,3,1,6,2,1.0,2.0,b'HB_40_ShortA.png',2337.2654232705254,70117.96269811576,70117,2337.233333333333
15,2337.2685585,70118.056755,70118,2337.266666666667,2337.81849375,70134.5548125,70134,2337.8,2339.85213175,70195.5639525,70195,2339.8333333333335,0.7077474865945987,2,1,6,2,1.0,2.0,b'SB_54_LongA.png',2340.5598792365945,70216.79637709784,70216,2340.5333333333333
16,2340.56630375,70216.9891125,70216,2340.5333333333333,2341.1163067499997,70233.48920249999,70233,2341.1,2343.15001525,70294.50045749999,70294,2343.133333333333,1.5384485752438195,2,1,6,2,1.0,2.0,b'SB_24_ShortA.png',2344.6884638252436,70340.6539147573,70340,2344.6666666666665
17,2344.7038325,70341.11497499999,70341,2344.7,2345.2204455,70356.613365,70356,2345.2,2347.25423025,70417.6269075,70417,2347.233333333333,2.6491467747837305,2,2,3,1,1.0,2.0,b'SB_35_LongA.png',2349.903377024784,70497.10131074351,70497,2349.9
18,2349.9120077499997,70497.3602325,70497,2349.9,2350.44531125,70513.3593375,70513,2350.4333333333334,2352.4790399999997,70574.3712,70574,2352.4666666666667,2.1854587080306374,3,1,6,2,1.0,2.0,b'HB_60_LongA.png',2354.6644987080304,70639.93496124091,70639,2354.633333333333
19,2354.6714435,70640.14330499999,70640,2354.6666666666665,2355.2547207499997,70657.64162249998,70657,2355.233333333333,2357.2884265,70718.65279499999,70718,2357.266666666667,3.1425323607982136,3,1,6,2,1.0,2.0,b'HB_1_ShortA.png',2360.430958860798,70812.92876582393,70812,2360.4
20,2360.44071875,70813.2215625,70813,2360.4333333333334,2360.94066325,70828.21989749999,70828,2360.9333333333334,2362.97424425,70889.2273275,70889,2362.9666666666667,0.6517445100471377,1,2,3,1,1.0,2.0,b'NB_10_ShortA.png',2363.625988760047,70908.77966280142,70908,2363.6
21,2363.63145125,70908.94353749999,70908,2363.6,2364.16472875,70924.9418625,70924,2364.133333333333,2366.1983247499998,70985.94974249999,70985,2366.1666666666665,1.0863609472871758,3,2,3,1,1.0,2.0,b'HB_36_ShortA.png',2367.284685697287,71018.5405709186,71018,2367.266666666667
22,2367.29381725,71018.8145175,71018,2367.266666666667,2367.89371125,71036.8113375,71036,2367.866666666667,2369.9274004999997,71097.822015,71097,2369.9,3.1846973983338103,1,1,6,2,1.0,2.0,b'NB_5_ShortA.png',2373.1120978983336,71193.36293695001,71193,2373.1
23,2373.1194615,71193.583845,71193,2373.1,2373.6359614999997,71209.078845,71209,2373.633333333333,2375.6695744999997,71270.08723499998,71270,2375.6666666666665,0.7169534438289702,2,2,3,1,1.0,2.0,b'SB_17_ShortA.png',2376.3865279438287,71291.59583831485,71291,2376.366666666667
24,2376.3996347499997,71291.98904249999,71291,2376.366666666667,2376.93281825,71307.98454749999,71307,2376.9,2378.96639375,71368.9918125,71368,2378.9333333333334,2.3808007939951494,3,2,3,1,1.0,2.0,b'HB_6_LongA.png',2381.347194543995,71440.41583631985,71440,2381.3333333333335
25,2381.3602232499998,71440.8066975,71440,2381.3333333333335,2381.86007075,71455.8021225,71455,2381.8333333333335,2383.89367525,71516.8102575,71516,2383.866666666667,2.035375892824959,2,2,3,1,1.0,2.0,b'SB_21_ShortA.png',2385.929051142825,71577.87153428474,71577,2385.9
26,2385.94718125,71578.4154375,71578,2385.9333333333334,2386.5138195,71595.41458499999,71595,2386.5,2388.5474384999998,71656.423155,71656,2388.5333333333333,3.054070488375146,2,1,6,2,1.0,2.0,b'SB_34_ShortA.png',2391.601508988375,71748.04526965125,71748,2391.6
27,2391.60817175,71748.2451525,71748,2391.6,2392.20811875,71766.24356249999,71766,2392.2,2394.24155625,71827.2466875,71827,2394.233333333333,2.0673073579673655,3,1,6,2,1.0,2.0,b'HB_32_LongA.png',2396.3088636079674,71889.26590823902,71889,2396.3
28,2396.31193325,71889.3579975,71889,2396.3,2396.861798,71905.85394,71905,2396.8333333333335,2398.895424,71966.86271999999,71966,2398.866666666667,2.312954442575574,3,1,5,2,1.0,1.0,b'HB_47_ShortA.png',2401.2083784425754,72036.25135327726,72036,2401.2
29,2401.21958925,72036.58767749999,72036,2401.2,2401.7695157499998,72053.0854725,72053,2401.766666666667,2403.803167,72114.09501,72114,2403.8,1.6529154513264075,3,1,3,1,2.0,2.0,b'HB_41_ShortA.png',2405.4560824513264,72163.6824735398,72163,2405.4333333333334
30,2405.473502,72164.20506,72164,2405.4666666666667,2406.0233707499997,72180.70112249999,72180,2406.0,2408.05705025,72241.7115075,72241,2408.0333333333333,1.068585465895012,2,2,3,1,1.0,2.0,b'SB_22_ShortA.png',2409.125635715895,72273.76907147685,72273,2409.1
31,2409.13487925,72274.0463775,72274,2409.133333333333,2409.73477475,72292.04324249999,72292,2409.733333333333,2411.76849725,72353.0549175,72353,2411.766666666667,-0.08302845672005787,2,1,3,1,2.0,2.0,b'SB_55_LongA.png',2411.68546879328,72350.5640637984,72350,2411.6666666666665
32,2411.69629975,72350.8889925,72350,2411.6666666666665,2412.229604,72366.88812,72366,2412.2,2414.2633164999997,72427.89949499999,72427,2414.233333333333,-0.043471082288306206,2,1,6,2,1.0,2.0,b'SB_45_ShortA.png',2414.2198454177114,72426.59536253134,72426,2414.2
33,2414.23788225,72427.1364675,72427,2414.233333333333,2414.80446525,72444.13395749999,72444,2414.8,2416.838163,72505.14489,72505,2416.8333333333335,1.4772686418727972,1,1,6,2,1.0,2.0,b'NB_11_ShortA.png',2418.3154316418727,72549.46294925618,72549,2418.3
34,2418.33025825,72549.9077475,72549,2418.3,2418.9135389999997,72567.40616999999,72567,2418.9,2420.9472565,72628.417695,72628,2420.9333333333334,1.5979024756816216,2,2,6,2,2.0,2.0,b'SB_28_ShortA.png',2422.5451589756817,72676.35476927045,72676,2422.5333333333333
35,2422.54852425,72676.4557275,72676,2422.5333333333333,2423.13183575,72693.9550725,72693,2423.1,2425.1654222499997,72754.96266749999,72754,2425.133333333333,1.8344444750691764,3,2,3,1,1.0,2.0,b'HB_35_LongA.png',2426.999866725069,72809.99600175206,72809,2426.9666666666667
36,2427.0171885,72810.515655,72810,2427.0,2427.5337477499997,72826.01243249999,72826,2427.5333333333333,2429.5674025,72887.022075,72887,2429.5666666666666,2.861267320346087,2,1,3,1,2.0,2.0,b'SB_31_LongA.png',2432.428669820346,72972.86009461038,72972,2432.4
37,2432.43893325,72973.1679975,72973,2432.4333333333334,2433.00549225,72990.1647675,72990,2433.0,2435.039073,73051.17219,73051,2435.0333333333333,0.6178080221288837,1,2,3,1,1.0,2.0,b'NB_15_ShortA.png',2435.656881022129,73069.70643066386,73069,2435.633333333333
38,2435.6739675,73070.219025,73070,2435.6666666666665,2436.173894,73085.21682,73085,2436.1666666666665,2438.2074545,73146.223635,73146,2438.2,2.7757855949457735,3,1,3,1,2.0,2.0,b'HB_25_LongA.png',2440.983240094946,73229.49720284838,73229,2440.9666666666667
39,2440.990757,73229.72271,73229,2440.9666666666667,2441.5573072499997,73246.7192175,73246,2441.5333333333333,2443.59080975,73307.7242925,73307,2443.5666666666666,-0.4564272740390152,1,2,3,1,1.0,2.0,b'NB_25_ShortA.png',2443.134382475961,73294.03147427883,73294,2443.133333333333
40,2443.13783475,73294.1350425,73294,2443.133333333333,2443.7044,73311.132,73311,2443.7,2445.73791275,73372.13738249999,73372,2445.733333333333,1.3888414466637187,2,2,6,2,2.0,2.0,b'SB_25_LongA.png',2447.1267541966636,73413.8026258999,73413,2447.1
41,2447.1434652499997,73414.30395749999,73414,2447.133333333333,2447.626743,73428.80228999999,73428,2447.6,2449.66027425,73489.8082275,73489,2449.633333333333,1.4881864280323498,2,1,3,1,2.0,2.0,b'SB_11_LongA.png',2451.1484606780323,73534.45382034098,73534,2451.133333333333
42,2451.161975,73534.85925,73534,2451.133333333333,2451.67848925,73550.3546775,73550,2451.6666666666665,2453.7121425,73611.364275,73611,2453.7,2.986639966373332,3,2,6,2,2.0,2.0,b'HB_43_ShortA.png',2456.6987824663734,73700.9634739912,73700,2456.6666666666665
43,2456.70905825,73701.2717475,73701,2456.7,2457.25890825,73717.7672475,73717,2457.233333333333,2459.292512,73778.77536,73778,2459.266666666667,0.49967996089253575,1,2,3,1,1.0,2.0,b'NB_16_ShortA.png',2459.7921919608925,73793.76575882678,73793,2459.766666666667
44,2459.7986189999997,73793.95856999999,73793,2459.766666666667,2460.38183725,73811.4551175,73811,2460.366666666667,2462.415317,73872.45951,73872,2462.4,1.0256283953785896,1,2,4,1,1.0,1.0,b'NB_6_ShortA.png',2463.4409453953785,73903.22836186136,73903,2463.4333333333334
45,2463.4454607499997,73903.36382249999,73903,2463.4333333333334,2463.94535525,73918.3606575,73918,2463.9333333333334,2465.97913075,73979.3739225,73979,2465.9666666666667,3.457219973905012,3,2,5,2,2.0,1.0,b'HB_53_ShortA.png',2469.436350723905,74083.09052171715,74083,2469.4333333333334
46,2469.4520737499997,74083.5622125,74083,2469.4333333333334,2469.93531725,74098.0595175,74098,2469.9333333333334,2471.96899,74159.0697,74159,2471.9666666666667,0.22495362168410793,2,2,6,2,2.0,2.0,b'SB_10_ShortA.png',2472.193943621684,74165.81830865052,74165,2472.1666666666665
47,2472.20196875,74166.0590625,74166,2472.2,2472.73515275,74182.0545825,74182,2472.733333333333,2474.7686854999997,74243.06056499999,74243,2474.766666666667,2.371466385317035,1,1,6,2,1.0,2.0,b'NB_13_ShortA.png',2477.1401518853168,74314.2045565595,74314,2477.133333333333
48,2477.14839,74314.45169999999,74314,2477.133333333333,2477.7149542499997,74331.4486275,74331,2477.7,2479.7485644999997,74392.456935,74392,2479.733333333333,1.9535827212384902,2,1,4,1,2.0,1.0,b'SB_59_shortA.png',2481.702147221238,74451.06441663715,74451,2481.7
49,2481.7191775,74451.575325,74451,2481.7,2482.28575275,74468.5725825,74468,2482.266666666667,2484.33607925,74530.08237749999,74530,2484.3333333333335,2.3054889346822165,3,2,5,2,2.0,1.0,b'HB_5_LongA.png',2486.641568184682,74599.24704554045,74599,2486.633333333333
50,2486.653551,74599.60652999999,74599,2486.633333333333,2487.186758,74615.60274,74615,2487.1666666666665,2489.220319,74676.60957,74676,2489.2,3.4244940458447672,3,1,3,1,2.0,2.0,b'HB_55_LongA.png',2492.644813045845,74779.34439137534,74779,2492.633333333333
51,2492.6494212499997,74779.4826375,74779,2492.633333333333,2493.165983,74794.97949,74794,2493.133333333333,2495.199843,74855.99528999999,74855,2495.1666666666665,2.410025778459385,1,2,3,1,1.0,2.0,b'NB_6_LongA.png',2497.6098687784593,74928.29606335377,74928,2497.6
52,2497.61589225,74928.47676749999,74928,2497.6,2498.1991264999997,74945.973795,74945,2498.1666666666665,2500.2327765,75006.983295,75006,2500.2,3.1008277889341116,3,1,3,1,2.0,2.0,b'HB_45_ShortA.png',2503.333604288934,75100.00812866802,75100,2503.3333333333335
53,2503.3377,75100.131,75100,2503.3333333333335,2503.9043162499997,75117.12948749999,75117,2503.9,2505.9379915,75178.139745,75178,2505.9333333333334,3.4983898337814026,1,1,6,2,1.0,2.0,b'NB_21_LongA.png',2509.4363813337814,75283.09144001344,75283,2509.4333333333334
54,2509.4411192499997,75283.2335775,75283,2509.4333333333334,2510.0242555,75300.727665,75300,2510.0,2512.0578995,75361.736985,75361,2512.0333333333333,1.792076489306055,2,2,3,1,1.0,2.0,b'SB_4_LongA.png',2513.849975989306,75415.49927967918,75415,2513.8333333333335
55,2513.860998,75415.82994,75415,2513.8333333333335,2514.36101625,75430.8304875,75430,2514.3333333333335,2516.3946135,75491.838405,75491,2516.366666666667,2.820032483432442,1,1,6,2,1.0,2.0,b'NB_14_ShortA.png',2519.2146459834325,75576.43937950298,75576,2519.2
56,2519.23176575,75576.95297249999,75576,2519.2,2519.798319,75593.94957,75593,2519.766666666667,2521.83188875,75654.9566625,75654,2521.8,0.9633741416619159,1,1,6,2,1.0,2.0,b'NB_7_LongA.png',2522.795262891662,75683.85788674986,75683,2522.766666666667
57,2522.8134875,75684.404625,75684,2522.8,2523.38005325,75701.4015975,75701,2523.366666666667,2525.41348325,75762.4044975,75762,2525.4,1.9734334241366014,3,1,6,2,1.0,2.0,b'HB_14_ShortA.png',2527.3869166741365,75821.6075002241,75821,2527.366666666667
58,2527.4037625,75822.112875,75822,2527.4,2527.9536064999998,75838.608195,75838,2527.9333333333334,2529.9870145,75899.610435,75899,2529.9666666666667,1.9042767444625497,3,2,6,2,2.0,2.0,b'HB_33_ShortA.png',2531.8912912444625,75956.73873733387,75956,2531.866666666667
59,2531.900977,75957.02931,75957,2531.9,2532.48414675,75974.5244025,75974,2532.4666666666667,2534.5178315,76035.53494499999,76035,2534.5,1.862711598048918,1,1,3,1,2.0,2.0,b'NB_2_LongA.png',2536.3805430980487,76091.41629294146,76091,2536.366666666667
60,2536.3953712499997,76091.86113749999,76091,2536.366666666667,2536.8785924999997,76106.357775,76106,2536.866666666667,2538.91212025,76167.3636075,76167,2538.9,3.482423488225322,3,1,3,1,2.0,2.0,b'HB_15_LongA.png',2542.3945437382254,76271.83631214676,76271,2542.366666666667
61,2542.3999215,76271.997645,76271,2542.366666666667,2542.9664825,76288.994475,76288,2542.9333333333334,2544.9999935,76349.999805,76349,2544.9666666666667,-0.5440261829062365,3,2,6,2,2.0,2.0,b'HB_30_ShortA.png',2544.455967317094,76333.67901951281,76333,2544.4333333333334
62,2544.4595575,76333.786725,76333,2544.4333333333334,2544.94279275,76348.2837825,76348,2544.9333333333334,2546.9762754999997,76409.288265,76409,2546.9666666666667,2.1619798291358165,1,2,6,2,2.0,2.0,b'NB_27_LongA.png',2549.1382553291355,76474.14765987407,76474,2549.133333333333
63,2549.154506,76474.63518,76474,2549.133333333333,2549.72117325,76491.6351975,76491,2549.7,2551.75472425,76552.6417275,76552,2551.733333333333,2.2508912892080843,2,1,6,2,1.0,2.0,b'SB_7_ShortA.png',2554.005615539208,76620.16846617624,76620,2554.0
64,2554.0235135,76620.705405,76620,2554.0,2554.55677375,76636.7032125,76636,2554.5333333333333,2556.5902425,76697.707275,76697,2556.5666666666666,1.0710832157055847,2,1,3,1,2.0,2.0,b'SB_44_ShortA.png',2557.6613257157055,76729.83977147116,76729,2557.633333333333
65,2557.66709775,76730.01293249999,76730,2557.6666666666665,2558.2503515,76747.510545,76747,2558.233333333333,2560.28403725,76808.5211175,76808,2560.266666666667,2.923662510700524,2,2,7,2,2.0,3.0,b'SB_36_LongA.png',2563.2076997607005,76896.23099282102,76896,2563.2
66,2563.22584375,76896.7753125,76896,2563.2,2563.7924734999997,76913.774205,76913,2563.766666666667,2565.82608875,76974.7826625,76974,2565.8,1.5429787051980384,2,2,7,2,2.0,3.0,b'SB_43_ShortA.png',2567.369067455198,77021.07202365594,77021,2567.366666666667
67,2567.37909725,77021.3729175,77021,2567.366666666667,2567.8956315,77036.868945,77036,2567.866666666667,2569.9293055,77097.87916499999,77097,2569.9,4.122184526466299,3,1,3,1,2.0,2.0,b'HB_59_ShortA.png',2574.051490026466,77221.54470079398,77221,2574.0333333333333
68,2574.0646265,77221.938795,77221,2574.0333333333333,2574.597867,77237.93601,77237,2574.5666666666666,2576.6313335,77298.940005,77298,2576.6,3.425616534310393,3,1,6,2,1.0,2.0,b'HB_11_LongA.png',2580.0569500343104,77401.70850102931,77401,2580.0333333333333
69,2580.0634017499997,77401.9020525,77401,2580.0333333333333,2580.6465962499997,77419.39788749999,77419,2580.633333333333,2582.680054,77480.40162,77480,2582.6666666666665,0.24564460618421435,2,1,2,1,2.0,3.0,b'SB_32_ShortA.png',2582.925698606184,77487.77095818553,77487,2582.9
70,2582.93907425,77488.1722275,77488,2582.9333333333334,2583.45569725,77503.6709175,77503,2583.4333333333334,2585.48911925,77564.6735775,77564,2585.4666666666667,1.495470134424977,2,1,2,1,2.0,3.0,b'SB_15_LongA.png',2586.984589384425,77609.53768153275,77609,2586.9666666666667
71,2586.99791775,77609.9375325,77609,2586.9666666666667,2587.5479204999997,77626.43761499999,77626,2587.5333333333333,2589.5815132499997,77687.44539749999,77687,2589.5666666666666,2.3300632270402275,1,2,6,2,2.0,2.0,b'NB_26_LongA.png',2591.91157647704,77757.3472943112,77757,2591.9
72,2591.9157797499997,77757.47339249999,77757,2591.9,2592.49905375,77774.9716125,77774,2592.4666666666667,2594.532581,77835.97743,77835,2594.5,0.9450481192907318,3,2,6,2,2.0,2.0,b'HB_38_LongA.png',2595.4776291192907,77864.32887357872,77864,2595.4666666666667
73,2595.484001,77864.52003,77864,2595.4666666666667,2596.050525,77881.51575,77881,2596.0333333333333,2598.10593425,77943.17802749999,77943,2598.1,2.856661732075736,2,2,7,2,2.0,3.0,b'SB_51_LongA.png',2600.9625959820755,78028.87787946226,78028,2600.9333333333334
74,2600.97439675,78029.2319025,78029,2600.9666666666667,2601.55765175,78046.7295525,78046,2601.5333333333333,2603.59126175,78107.7378525,78107,2603.5666666666666,0.487541843613144,1,1,3,1,2.0,2.0,b'NB_1_ShortA.png',2604.078803593613,78122.36410780839,78122,2604.0666666666666
75,2604.09283525,78122.7850575,78122,2604.0666666666666,2604.65938775,78139.7816325,78139,2604.633333333333,2606.692931,78200.78793,78200,2606.6666666666665,0.9829103140509687,1,1,3,1,2.0,2.0,b'NB_12_LongA.png',2607.675841314051,78230.27523942153,78230,2607.6666666666665
76,2607.6793844999997,78230.381535,78230,2607.6666666666665,2608.24601125,78247.3803375,78247,2608.233333333333,2610.27960325,78308.3880975,78308,2610.266666666667,2.0835802504443564,2,2,7,2,2.0,3.0,b'SB_30_LongA.png',2612.3631835004444,78370.89550501334,78370,2612.3333333333335
77,2612.37263425,78371.1790275,78371,2612.366666666667,2612.88926425,78386.6779275,78386,2612.866666666667,2614.922799,78447.68397,78447,2614.9,1.3838107300107367,1,1,3,1,2.0,2.0,b'NB_10_LongA.png',2616.3066097300107,78489.19829190032,78489,2616.3
78,2616.321554,78489.64662,78489,2616.3,2616.8380675,78505.142025,78505,2616.8333333333335,2618.871621,78566.14863,78566,2618.866666666667,0.12571437226142734,2,1,2,1,2.0,3.0,b'SB_47_LongA.png',2618.997335372261,78569.92006116784,78569,2618.9666666666667
79,2619.00316275,78570.0948825,78570,2619.0,2619.53640675,78586.0922025,78586,2619.5333333333333,2621.569999,78647.09997,78647,2621.5666666666666,5.28402551606996,3,1,4,1,2.0,1.0,b'HB_44_ShortA.png',2626.85402451607,78805.6207354821,78805,2626.8333333333335
80,2626.8671664999997,78806.01499499999,78806,2626.866666666667,2627.3671019999997,78821.01306,78821,2627.366666666667,2629.400646,78882.01938,78882,2629.4,2.45161788596306,3,2,6,2,2.0,2.0,b'HB_4_LongA.png',2631.852263885963,78955.56791657889,78955,2631.8333333333335
81,2631.86311425,78955.89342749999,78955,2631.8333333333335,2632.3795959999998,78971.38788,78971,2632.366666666667,2634.41322825,79032.3968475,79032,2634.4,1.6482561668963172,1,2,5,2,2.0,1.0,b'NB_19_ShortA.png',2636.0614844168963,79081.84453250689,79081,2636.0333333333333
82,2636.0672462499997,79082.01738749999,79082,2636.0666666666666,2636.58377425,79097.51322749999,79097,2636.5666666666666,2638.6174625,79158.523875,79158,2638.6,3.615542754298076,1,1,3,1,2.0,2.0,b'NB_28_LongA.png',2642.233005254298,79266.99015762894,79266,2642.2
83,2642.2427049999997,79267.28115,79267,2642.233333333333,2642.8092695,79284.278085,79284,2642.8,2644.8426815,79345.280445,79345,2644.8333333333335,3.1815813597640954,2,2,2,1,1.0,3.0,b'SB_20_LongA.png',2648.024262859764,79440.72788579292,79440,2648.0
84,2648.04119825,79441.2359475,79441,2648.0333333333333,2648.54121525,79456.2364575,79456,2648.5333333333333,2650.574851,79517.24553,79517,2650.5666666666666,2.17058184358757,1,2,6,2,2.0,2.0,b'NB_7_ShortA.png',2652.7454328435874,79582.36298530763,79582,2652.733333333333
85,2652.75332725,79582.5998175,79582,2652.733333333333,2653.35330825,79600.5992475,79600,2653.3333333333335,2655.386954,79661.60862,79661,2655.366666666667,2.1551844882196747,2,2,6,2,2.0,2.0,b'SB_3_LongA.png',2657.5421384882197,79726.26415464659,79726,2657.5333333333333
86,2657.5485264999998,79726.45579499999,79726,2657.5333333333333,2658.0817365,79742.452095,79742,2658.0666666666666,2660.1152795,79803.45838499999,79803,2660.1,4.0430408995598555,3,2,6,2,2.0,2.0,b'HB_58_ShortA.png',2664.1583203995597,79924.74961198679,79924,2664.133333333333
87,2664.1673204999997,79925.019615,79925,2664.1666666666665,2664.7006475,79941.01942499999,79941,2664.7,2666.73402975,80002.0208925,80002,2666.733333333333,1.7426734848413616,2,2,7,2,2.0,3.0,b'SB_14_ShortA.png',2668.4767032348414,80054.30109704525,80054,2668.4666666666667
88,2668.4805185,80054.415555,80054,2668.4666666666667,2669.06389725,80071.9169175,80071,2669.0333333333333,2671.0976877499997,80132.93063249999,80132,2671.0666666666666,1.6496193428174593,2,1,2,1,2.0,3.0,b'SB_52_ShortA.png',2672.747307092817,80182.41921278452,80182,2672.733333333333
89,2672.751453,80182.54359,80182,2672.733333333333,2673.23480825,80197.04424749999,80197,2673.233333333333,2675.268444,80258.05331999999,80258,2675.266666666667,0.7156075749080628,1,1,3,1,2.0,2.0,b'NB_9_LongA.png',2675.984051574908,80279.52154724723,80279,2675.9666666666667
90,2676.00136175,80280.0408525,80280,2676.0,2676.5179989999997,80295.53996999998,80295,2676.5,2678.55159475,80356.54784249999,80356,2678.5333333333333,6.466529537341557,3,1,3,1,2.0,2.0,b'HB_48_ShortA.png',2685.0181242873414,80550.54372862024,80550,2685.0
91,2685.0320242499997,80550.96072749999,80550,2685.0,2685.59856375,80567.9569125,80567,2685.5666666666666,2687.6322195,80628.96658499999,80628,2687.6,1.591373662755359,3,2,4,1,1.0,1.0,b'HB_52_LongA.png',2689.223593162755,80676.70779488265,80676,2689.2
92,2689.23995625,80677.1986875,80677,2689.233333333333,2689.8233655,80694.700965,80694,2689.8,2691.8568805,80755.706415,80755,2691.8333333333335,1.8769006644142792,1,2,7,2,2.0,3.0,b'NB_30_ShortA.png',2693.7337811644143,80812.01343493242,80812,2693.733333333333
93,2693.73905475,80812.1716425,80812,2693.733333333333,2694.322287,80829.66861,80829,2694.3,2696.3559097499997,80890.6772925,80890,2696.3333333333335,2.7478595175780356,3,1,3,1,2.0,2.0,b'HB_50_ShortA.png',2699.1037692675777,80973.11307802734,80973,2699.1
94,2699.1215267499997,80973.64580249999,80973,2699.1,2699.6880672499997,80990.6420175,80990,2699.6666666666665,2701.72157575,81051.64727249999,81051,2701.7,-1.4940120638930239,3,1,4,1,2.0,1.0,b'HB_2_ShortA.png',2700.227563686107,81006.8269105832,81006,2700.2
95,2700.2454475,81007.363425,81007,2700.233333333333,2700.8453932499997,81025.3617975,81025,2700.8333333333335,2702.8789275,81086.367825,81086,2702.866666666667,1.501038011687342,2,1,7,2,1.0,3.0,b'SB_49_ShortA.png',2704.3799655116873,81131.39896535061,81131,2704.366666666667
96,2704.3878065,81131.63419499999,81131,2704.366666666667,2704.971125,81149.13375000001,81149,2704.9666666666667,2707.0047145,81210.141435,81210,2707.0,1.7858745427220128,1,2,2,1,1.0,3.0,b'NB_23_ShortA.png',2708.790589042722,81263.71767128166,81263,2708.766666666667
97,2708.8031145,81264.093435,81264,2708.8,2709.3196802499997,81279.59040749999,81279,2709.3,2711.35328325,81340.5984975,81340,2711.3333333333335,1.4635000645066611,2,2,7,2,2.0,3.0,b'SB_33_ShortA.png',2712.8167833145067,81384.5034994352,81384,2712.8
98,2712.82727275,81384.81818249999,81384,2712.8,2713.41053725,81402.3161175,81402,2713.4,2715.4441927499997,81463.32578249999,81463,2715.4333333333334,0.8123139014351182,2,1,2,1,2.0,3.0,b'SB_46_LongA.png',2716.256506651435,81487.69519954304,81487,2716.233333333333
99,2716.2707505,81488.122515,81488,2716.266666666667,2716.770582,81503.11746000001,81503,2716.766666666667,2718.80408375,81564.12251249999,81564,2718.8,1.1179035833920352,3,1,5,2,1.0,1.0,b'HB_21_ShortA.png',2719.921987333392,81597.65962000175,81597,2719.9
100,2719.9255197499997,81597.76559249999,81597,2719.9,2720.42551125,81612.7653375,81612,2720.4,2722.45911725,81673.7735175,81673,2722.4333333333334,1.6123463785625063,1,1,7,2,1.0,3.0,b'NB_30_LongA.png',2724.0714636285625,81722.14390885687,81722,2724.0666666666666
101,2724.0896089999997,81722.68826999998,81722,2724.0666666666666,2724.62291225,81738.6873675,81738,2724.6,2726.65650275,81799.6950825,81799,2726.633333333333,3.2549254643381573,1,1,2,1,2.0,3.0,b'NB_15_LongA.png',2729.9114282143382,81897.34284643014,81897,2729.9
102,2729.915297,81897.45891,81897,2729.9,2730.4819614999997,81914.45884499999,81914,2730.4666666666667,2732.51559675,81975.4679025,81975,2732.5,3.827975417370908,1,2,3,1,1.0,2.0,b'NB_27_ShortA.png',2736.343572167371,82090.30716502112,82090,2736.3333333333335
103,2736.36081125,82090.8243375,82090,2736.3333333333335,2736.8606649999997,82105.81994999999,82105,2736.8333333333335,2738.894308,82166.82923999999,82166,2738.866666666667,1.9085346518550068,1,2,3,1,1.0,2.0,b'NB_22_ShortA.png',2740.802842651855,82224.08527955564,82224,2740.8
104,2740.80624275,82224.1872825,82224,2740.8,2741.28955925,82238.6867775,82238,2741.266666666667,2743.3232614999997,82299.69784499999,82299,2743.3,2.0635778220603243,1,2,7,2,2.0,3.0,b'NB_18_ShortA.png',2745.38683932206,82361.6051796618,82361,2745.366666666667
105,2745.3945102499997,82361.83530749999,82361,2745.366666666667,2745.894414,82376.83241999999,82376,2745.866666666667,2747.92792725,82437.8378175,82437,2747.9,0.48811988037778065,1,2,7,2,2.0,3.0,b'NB_9_ShortA.png',2748.4160471303776,82452.48141391133,82452,2748.4
106,2748.420845,82452.62535,82452,2748.4,2748.98744925,82469.62347749999,82469,2748.9666666666667,2751.021108,82530.63324,82530,2751.0,1.779723895539064,3,1,6,2,1.0,2.0,b'HB_9_LongA.png',2752.800831895539,82584.02495686617,82584,2752.8
107,2752.8131195,82584.393585,82584,2752.8,2753.379685,82601.39055,82601,2753.366666666667,2755.41331125,82662.3993375,82662,2755.4,3.8378593581728637,3,1,3,1,2.0,2.0,b'HB_26_LongA.png',2759.2511706081727,82777.53511824519,82777,2759.233333333333
108,2759.264605,82777.93815,82777,2759.233333333333,2759.74785725,82792.4357175,82792,2759.733333333333,2761.7822794999997,82853.46838499999,82853,2761.766666666667,2.8383335980470292,1,2,7,2,2.0,3.0,b'NB_20_LongA.png',2764.6206130980468,82938.6183929414,82938,2764.6
109,2764.636005,82939.08015,82939,2764.633333333333,2765.1858912499997,82955.57673749999,82955,2765.1666666666665,2767.2194867499998,83016.58460249999,83016,2767.2,0.8743824888952076,1,2,6,2,2.0,2.0,b'NB_21_ShortA.png',2768.093869238895,83042.81607716685,83042,2768.0666666666666
110,2768.11027725,83043.30831749999,83043,2768.1,2768.643563,83059.30689,83059,2768.633333333333,2770.6771074999997,83120.31322499999,83120,2770.6666666666665,1.8324644233798608,3,1,3,1,2.0,2.0,b'HB_39_ShortA.png',2772.5095719233796,83175.28715770139,83175,2772.5
111,2772.518062,83175.54186,83175,2772.5,2773.0679757499997,83192.0392725,83192,2773.0666666666666,2775.1013989999997,83253.04196999999,83253,2775.1,2.0243680212879553,1,2,7,2,2.0,3.0,b'NB_18_LongA.png',2777.1257670212876,83313.77301063863,83313,2777.1
112,2777.132284,83313.96852,83313,2777.1,2777.68227725,83330.4683175,83330,2777.6666666666665,2779.71583075,83391.4749225,83391,2779.7,2.052406178030651,1,1,2,1,2.0,3.0,b'NB_4_ShortA.png',2781.7682369280305,83453.04710784092,83453,2781.766666666667
113,2781.78488475,83453.5465425,83453,2781.766666666667,2782.318076,83469.54228,83469,2782.3,2784.3516375,83530.54912499999,83530,2784.3333333333335,2.7784796249470674,3,1,4,1,2.0,1.0,b'HB_16_ShortA.png',2787.130117124947,83613.9035137484,83613,2787.1
114,2787.144626,83614.33877999999,83614,2787.133333333333,2787.6946252499997,83630.8387575,83630,2787.6666666666665,2789.728225,83691.84675,83691,2789.7,1.6026235948083922,1,1,2,1,2.0,3.0,b'NB_24_ShortA.png',2791.3308485948082,83739.92545784425,83739,2791.3
115,2791.335784,83740.07351999999,83740,2791.3333333333335,2791.9023672499998,83757.0710175,83757,2791.9,2793.93596725,83818.0790175,83818,2793.9333333333334,2.2166429267963395,3,1,2,1,2.0,3.0,b'HB_20_ShortA.png',2796.1526101767963,83884.57830530389,83884,2796.133333333333
116,2796.1676675,83885.030025,83885,2796.1666666666665,2796.750908,83902.52724,83902,2796.733333333333,2798.78451975,83963.5355925,83963,2798.766666666667,3.5005697914748453,3,2,2,1,1.0,3.0,b'HB_8_LongA.png',2802.285089541475,84068.55268624425,84068,2802.266666666667
117,2802.303273,84069.09819,84069,2802.3,2802.8365795,84085.097385,84085,2802.8333333333335,2804.87020175,84146.10605249999,84146,2804.866666666667,2.2697869453113526,1,2,7,2,2.0,3.0,b'NB_8_ShortA.png',2807.1399886953113,84214.19966085933,84214,2807.133333333333
118,2807.1466607499997,84214.3998225,84214,2807.133333333333,2807.6466607499997,84229.3998225,84229,2807.633333333333,2809.6801065,84290.40319499999,84290,2809.6666666666665,6.144027464906685,3,2,7,2,2.0,3.0,b'HB_49_LongA.png',2815.8241339649067,84474.72401894719,84474,2815.8
119,2815.8417565,84475.252695,84475,2815.8333333333335,2816.34164075,84490.2492225,84490,2816.3333333333335,2818.37529925,84551.2589775,84551,2818.366666666667,1.8350575602962635,1,1,6,2,1.0,2.0,b'NB_26_ShortA.png',2820.210356810296,84606.31070430888,84606,2820.2
120,2820.2257,84606.771,84606,2820.2,2820.7089457499997,84621.2683725,84621,2820.7,2822.7425867499996,84682.27760249999,84682,2822.733333333333,2.4070853982120752,3,1,2,1,2.0,3.0,b'HB_23_LongA.png',2825.1496721482117,84754.49016444635,84754,2825.133333333333
121,2825.16259,84754.8777,84754,2825.133333333333,2825.6625635,84769.876905,84769,2825.633333333333,2827.6960959999997,84830.88287999999,84830,2827.6666666666665,2.6583779536304064,2,2,6,2,2.0,2.0,b'SB_38_LongA.png',2830.35447395363,84910.6342186089,84910,2830.3333333333335
122,2830.35913075,84910.7739225,84910,2830.3333333333335,2830.9590452499997,84928.7713575,84928,2830.9333333333334,2833.02598775,84990.7796325,84990,2833.0,4.03641859756317,1,2,2,1,1.0,3.0,b'NB_11_LongA.png',2837.062406347563,85111.87219042689,85111,2837.0333333333333
123,2837.064949,85111.94847,85111,2837.0333333333333,2837.59840425,85127.9521275,85127,2837.5666666666666,2839.6318785,85188.956355,85188,2839.6,1.3264989977469668,3,2,2,1,1.0,3.0,b'HB_27_LongA.png',2840.958377497747,85228.75132493241,85228,2840.9333333333334
124,2840.9718865,85229.156595,85229,2840.9666666666667,2841.5218225,85245.654675,85245,2841.5,2843.55542925,85306.6628775,85306,2843.5333333333333,3.3425997943268158,1,1,2,1,2.0,3.0,b'NB_22_LongA.png',2846.898029044327,85406.9408713298,85406,2846.866666666667
125,2846.907116,85407.21347999999,85407,2846.9,2847.4069837499997,85422.20951249999,85422,2847.4,2849.44046175,85483.2138525,85483,2849.4333333333334,1.5912390559678897,2,1,2,1,2.0,3.0,b'SB_16_LongA.png',2851.031700805968,85530.95102417904,85530,2851.0
126,2851.03919975,85531.17599250001,85531,2851.0333333333333,2851.5724284999997,85547.17285499998,85547,2851.5666666666666,2853.6058679999996,85608.17603999999,85608,2853.6,1.820754095504526,3,1,2,1,2.0,3.0,b'HB_34_ShortA.png',2855.426622095504,85662.79866286513,85662,2855.4
127,2855.4399572499997,85663.1987175,85663,2855.4333333333334,2855.9564917499997,85678.69475249999,85678,2855.9333333333334,2857.989893,85739.69679,85739,2857.9666666666667,1.8269066639477387,3,2,2,1,1.0,3.0,b'HB_37_LongA.png',2859.8167996639477,85794.50398991843,85794,2859.8
128,2859.8254134999997,85794.76240499999,85794,2859.8,2860.35864775,85810.7594325,85810,2860.3333333333335,2862.3923875,85871.771625,85871,2862.366666666667,1.7102813074598089,3,1,7,2,1.0,3.0,b'HB_31_LongA.png',2864.10266880746,85923.08006422379,85923,2864.1
129,2864.11077325,85923.3231975,85923,2864.1,2864.6439345,85939.318035,85939,2864.633333333333,2866.67761175,86000.3283525,86000,2866.6666666666665,4.039466842659749,1,1,2,1,2.0,3.0,b'NB_24_LongA.png',2870.7170785926596,86121.5123577798,86121,2870.7
130,2870.7350465,86122.051395,86122,2870.733333333333,2871.2682255,86138.046765,86138,2871.266666666667,2873.301934,86199.05802,86199,2873.3,2.7914148182608187,1,2,7,2,2.0,3.0,b'NB_29_ShortA.png',2876.093348818261,86282.80046454782,86282,2876.0666666666666
131,2876.0976619999997,86282.92985999999,86282,2876.0666666666666,2876.6809574999997,86300.42872499999,86300,2876.6666666666665,2878.7146525,86361.439575,86361,2878.7,2.5240816911682487,2,2,7,2,2.0,3.0,b'SB_53_ShortA.png',2881.238734191168,86437.16202573504,86437,2881.233333333333
132,2881.2493295,86437.479885,86437,2881.233333333333,2881.8658634999997,86455.97590499998,86455,2881.8333333333335,2883.89953925,86516.9861775,86516,2883.866666666667,2.201944121043198,2,2,7,2,2.0,3.0,b'SB_2_LongA.png',2886.1014833710433,86583.0445011313,86583,2886.1
133,2886.11530225,86583.45906749999,86583,2886.1,2886.7151264999998,86601.453795,86601,2886.7,2888.7488114999996,86662.46434499999,86662,2888.733333333333,1.8801720959600061,1,2,7,2,2.0,3.0,b'NB_8_LongA.png',2890.6289835959597,86718.86950787879,86718,2890.6
134,2890.6462595,86719.387785,86719,2890.633333333333,2891.17945925,86735.3837775,86735,2891.1666666666665,2893.21308925,86796.3926775,86796,2893.2,1.9679499066551216,1,1,2,1,2.0,3.0,b'NB_4_LongA.png',2895.181039156655,86855.43117469965,86855,2895.1666666666665
135,2895.1963017499997,86855.88905249999,86855,2895.1666666666665,2895.7461172499998,86872.3835175,86872,2895.733333333333,2897.779826,86933.39478,86933,2897.766666666667,1.7718153318273835,2,1,2,1,2.0,3.0,b'SB_27_ShortA.png',2899.5516413318273,86986.54923995482,86986,2899.5333333333333
136,2899.5674492499998,86987.0234775,86987,2899.5666666666666,2900.067354,87002.02062,87002,2900.0666666666666,2902.10098475,87063.0295425,87063,2902.1,2.0452223730972037,2,1,2,1,2.0,3.0,b'SB_6_LongA.png',2904.146207123097,87124.38621369291,87124,2904.133333333333
137,2904.162637,87124.87911,87124,2904.133333333333,2904.7624942499997,87142.8748275,87142,2904.733333333333,2906.79612675,87203.8838025,87203,2906.766666666667,1.9742444474832155,1,1,2,1,2.0,3.0,b'NB_3_LongA.png',2908.770371197483,87263.1111359245,87263,2908.766666666667
138,2908.77461675,87263.2385025,87263,2908.766666666667,2909.2578504999997,87277.735515,87277,2909.233333333333,2911.29141075,87338.74232250001,87338,2911.266666666667,0.9093483816250227,2,1,7,2,1.0,3.0,b'SB_39_ShortA.png',2912.200759131625,87366.02277394876,87366,2912.2
139,2912.21482325,87366.4446975,87366,2912.2,2912.7481077499997,87382.4432325,87382,2912.733333333333,2914.7817609999997,87443.45283,87443,2914.766666666667,2.117392468440812,2,2,7,2,2.0,3.0,b'SB_37_ShortA.png',2916.8991534684405,87506.97460405322,87506,2916.866666666667
140,2916.91044175,87507.3132525,87507,2916.9,2917.476957,87524.30871,87524,2917.4666666666667,2919.51065725,87585.3197175,87585,2919.5,3.0851367764989845,2,2,7,2,2.0,3.0,b'SB_8_LongA.png',2922.595794026499,87677.87382079496,87677,2922.5666666666666
141,2922.60748975,87678.22469249999,87678,2922.6,2923.1573477499996,87694.72043249999,87694,2923.133333333333,2925.1909229999997,87755.72768999999,87755,2925.1666666666665,2.723563514475245,1,1,7,2,1.0,3.0,b'NB_20_ShortA.png',2927.914486514475,87837.43459543424,87837,2927.9
142,2927.92751,87837.8253,87837,2927.9,2928.41086275,87852.3258825,87852,2928.4,2930.4442142499997,87913.3264275,87913,2930.4333333333334,1.437409338715952,1,1,2,1,2.0,3.0,b'NB_28_ShortA.png',2931.8816235887157,87956.44870766148,87956,2931.866666666667
143,2931.89459125,87956.8377375,87956,2931.866666666667,2932.4280605,87972.84181499999,87972,2932.4,2934.4614364999998,88033.84309499999,88033,2934.4333333333334,5.401523066160735,3,2,7,2,2.0,3.0,b'HB_3_ShortA.png',2939.8629595661605,88195.88878698481,88195,2939.8333333333335
144,2939.8722562499997,88196.1676875,88196,2939.866666666667,2940.422096,88212.66287999999,88212,2940.4,2942.4557032499997,88273.67109749999,88273,2942.4333333333334,2.5703413434675895,3,2,5,2,2.0,1.0,b'HB_10_LongA.png',2945.0260445934673,88350.78133780402,88350,2945.0
145,2945.0292215,88350.876645,88350,2945.0,2945.5290622499997,88365.87186749998,88365,2945.5,2947.56270425,88426.8811275,88426,2947.5333333333333,2.6856893496587873,3,1,2,1,2.0,3.0,b'HB_29_ShortA.png',2950.248393599659,88507.45180798977,88507,2950.233333333333
146,2950.2654475,88507.963425,88507,2950.233333333333,2950.7486237499998,88522.4587125,88522,2950.733333333333,2952.78230425,88583.4691275,88583,2952.766666666667,1.3961277723428793,3,2,3,1,1.0,2.0,b'HB_56_LongA.png',2954.178432022343,88625.35296067028,88625,2954.1666666666665
147,2954.2378277499997,88627.13483249999,88627,2954.233333333333,2954.82102425,88644.6307275,88644,2954.8,2956.8546939999997,88705.64081999999,88705,2956.8333333333335,2.7181475208490156,2,1,7,2,1.0,3.0,b'SB_57_ShortA.png',2959.5728415208487,88787.18524562546,88787,2959.5666666666666
148,2959.591302,88787.73905999999,88787,2959.5666666666666,2960.1244767499998,88803.73430249999,88803,2960.1,2962.1582612499997,88864.74783749999,88864,2962.133333333333,1.8079226424451917,3,2,7,2,2.0,3.0,b'HB_18_ShortA.png',2963.966183892445,88918.98551677335,88918,2963.9333333333334
149,2963.9761787499997,88919.28536249998,88919,2963.9666666666667,2964.5427462499997,88936.28238749999,88936,2964.5333333333333,2966.5763595,88997.29078499999,88997,2966.5666666666666,2.098215084755793,1,2,7,2,2.0,3.0,b'NB_29_LongA.png',2968.6745745847556,89060.23723754266,89060,2968.6666666666665
150,2968.6810765,89060.432295,89060,2968.6666666666665,2969.180938,89075.42814,89075,2969.1666666666665,2971.21460625,89136.4381875,89136,2971.2,1.9593263913411647,2,1,2,1,2.0,3.0,b'SB_5_LongA.png',2973.1739326413413,89195.21797924023,89195,2973.1666666666665
151,2973.19074425,89195.7223275,89195,2973.1666666666665,2973.7740102499997,89213.22030749999,89213,2973.766666666667,2975.80735625,89274.2206875,89274,2975.8,3.5642672746325843,3,2,5,2,2.0,1.0,b'HB_28_ShortA.png',2979.3716235246325,89381.14870573897,89381,2979.366666666667
152,2979.38481125,89381.5443375,89381,2979.366666666667,2979.98466125,89399.53983750001,89399,2979.9666666666667,2982.0181319999997,89460.54396,89460,2982.0,0.9243933639954776,1,1,2,1,2.0,3.0,b'NB_2_ShortA.png',2982.942525363995,89488.27576091986,89488,2982.9333333333334
153,2982.9545424999997,89488.636275,89488,2982.9333333333334,2983.48781725,89504.63451749999,89504,2983.4666666666667,2985.52124,89565.6372,89565,2985.5,2.0879811116028577,2,2,2,1,1.0,3.0,b'SB_18_ShortA.png',2987.609221111603,89628.27663334808,89628,2987.6
154,2987.6169837499997,89628.5095125,89628,2987.6,2988.133621,89644.00863,89644,2988.133333333333,2990.1671107499997,89705.01332249999,89705,2990.1666666666665,2.8304257508716546,1,1,4,1,2.0,1.0,b'NB_13_LongA.png',2992.9975365008713,89789.92609502614,89789,2992.9666666666667
155,2993.000964,89790.02892,89790,2993.0,2993.60082775,89808.0248325,89808,2993.6,2995.63441575,89869.0324725,89869,2995.633333333333,2.6607750440598466,3,1,5,2,1.0,1.0,b'HB_51_LongA.png',2998.2951907940596,89948.85572382179,89948,2998.266666666667
156,2998.310239,89949.30717,89949,2998.3,2998.8601332499998,89965.8039975,89965,2998.8333333333335,3000.89376175,90026.8128525,90026,3000.866666666667,1.2457519882009365,1,2,7,2,2.0,3.0,b'NB_16_LongA.png',3002.139513738201,90064.18541214603,90064,3002.133333333333
157,3002.154115,90064.62345,90064,3002.133333333333,3002.72069625,90081.6208875,90081,3002.7,3004.7541834999997,90142.62550499999,90142,3004.733333333333,1.6568158610607497,2,1,2,1,2.0,3.0,b'SB_50_LongA.png',3006.4109993610605,90192.32998083181,90192,3006.4
158,3006.4147319999997,90192.44196,90192,3006.4,3006.98141525,90209.4424575,90209,3006.9666666666667,3009.01504225,90270.4512675,90270,3009.0,0.8357503681909293,2,1,2,1,2.0,3.0,b'SB_40_LongA.png',3009.850792618191,90295.52377854573,90295,3009.8333333333335
159,3009.86383325,90295.9149975,90295,3009.8333333333335,3010.3971615,90311.914845,90311,3010.366666666667,3012.4307519999998,90372.92255999999,90372,3012.4,0.3719344072160311,1,1,2,1,2.0,3.0,b'NB_12_ShortA.png',3012.802686407216,90384.08059221647,90384,3012.8
160,3012.8107175,90384.321525,90384,3012.8,3013.3272844999997,90399.81853499998,90399,3013.3,3015.360902,90460.82706,90460,3015.3333333333335,1.0725878931116313,2,1,2,1,2.0,3.0,b'SB_56_ShortA.png',3016.4334898931115,90493.00469679334,90493,3016.4333333333334
161,3016.4516015,90493.548045,90493,3016.4333333333334,3016.98486375,90509.5459125,90509,3016.9666666666667,3019.01834625,90570.5503875,90570,3019.0,0.9217873396119103,2,1,2,1,2.0,3.0,b'SB_41_ShortA.png',3019.940133589612,90598.20400768836,90598,3019.9333333333334
162,3019.955545,90598.66635,90598,3019.9333333333334,3020.5055332499996,90615.1659975,90615,3020.5,3022.5390252499997,90676.17075749999,90676,3022.5333333333333,1.4697709694155492,1,2,7,2,2.0,3.0,b'NB_1_LongA.png',3024.008796219415,90720.26388658246,90720,3024.0
163,3024.0225594999997,90720.67678499999,90720,3024.0,3024.5891672499997,90737.67501749999,90737,3024.5666666666666,3026.62257025,90798.6771075,90798,3026.6,1.2096346950274892,1,1,2,1,2.0,3.0,b'NB_3_ShortA.png',3027.8322049450276,90834.96614835082,90834,3027.8
164,3027.8463482499997,90835.39044749999,90835,3027.8333333333335,3028.3962994999997,90851.888985,90851,3028.366666666667,3030.4297039999997,90912.89111999999,90912,3030.4,1.277925965958275,2,1,7,2,1.0,3.0,b'SB_60_LongA.png',3031.707629965958,90951.22889897873,90951,3031.7
165,3031.71308925,90951.3926775,90951,3031.7,3032.1964015,90965.892045,90965,3032.1666666666665,3034.2300545,91026.90163499999,91026,3034.2,3.641353369341232,3,2,2,1,1.0,3.0,b'HB_46_LongA.png',3037.871407869341,91136.14223608022,91136,3037.866666666667
166,3037.8849257499996,91136.5477725,91136,3037.866666666667,3038.4849302499997,91154.54790749999,91154,3038.4666666666667,3040.518299,91215.54896999999,91215,3040.5,2.5286110570305027,2,1,2,1,2.0,3.0,b'SB_42_LongA.png',3043.0469100570303,91291.4073017109,91291,3043.0333333333333
167,3043.056972,91291.70916,91291,3043.0333333333333,3043.5736785,91307.210355,91307,3043.5666666666666,3045.6072225,91368.21667499999,91368,3045.6,2.579577212629374,2,1,7,2,1.0,3.0,b'SB_23_ShortA.png',3048.186799712629,91445.60399137887,91445,3048.1666666666665
168,3048.2031564999997,91446.09469499999,91446,3048.2,3048.769708,91463.09124,91463,3048.766666666667,3050.80312675,91524.0938025,91524,3050.8,2.662416827515699,3,2,2,1,1.0,3.0,b'HB_54_LongA.png',3053.4655435775157,91603.96630732548,91603,3053.4333333333334
169,3053.4787125,91604.361375,91604,3053.4666666666667,3054.06183775,91621.8551325,91621,3054.0333333333333,3056.095495,91682.86485,91682,3056.0666666666666,2.8482319657923654,2,2,7,2,2.0,3.0,b'SB_58_ShortA.png',3058.9437269657924,91768.31180897377,91768,3058.9333333333334
170,3058.9564539999997,91768.69361999999,91768,3058.9333333333334,3059.4396315,91783.188945,91783,3059.4333333333334,3061.47331525,91844.1994575,91844,3061.4666666666667,2.190885064250324,2,1,2,1,2.0,3.0,b'SB_19_LongA.png',3063.66420031425,91909.92600942751,91909,3063.633333333333
171,3063.66863375,91910.0590125,91910,3063.6666666666665,3064.2518765,91927.556295,91927,3064.233333333333,3066.2855569999997,91988.56670999998,91988,3066.266666666667,0.8598060623626225,1,1,2,1,2.0,3.0,b'NB_23_LongA.png',3067.1453630623623,92014.36089187086,92014,3067.133333333333
172,3067.15845975,92014.7537925,92014,3067.133333333333,3067.75836675,92032.7510025,92032,3067.733333333333,3069.7919847499998,92093.75954249999,92093,3069.766666666667,1.1520442969049327,1,1,2,1,2.0,3.0,b'NB_17_ShortA.png',3070.9440290469047,92128.32087140714,92128,3070.9333333333334
173,3070.95282925,92128.58487749999,92128,3070.9333333333334,3071.51934425,92145.58032749999,92145,3071.5,3073.55304825,92206.59144749999,92206,3073.5333333333333,1.790662252169568,3,1,2,1,2.0,3.0,b'HB_24_LongA.png',3075.3437105021694,92260.31131506508,92260,3075.3333333333335
174,3075.3586982499996,92260.76094749999,92260,3075.3333333333335,3075.9253492499997,92277.76047749999,92277,3075.9,3077.9587945,92338.76383499999,92338,3077.9333333333334,2.7034147099475376,2,1,2,1,2.0,3.0,b'SB_29_LongA.png',3080.6622092099474,92419.86627629842,92419,3080.633333333333
175,3080.675464,92420.26392,92420,3080.6666666666665,3081.29200175,92438.7600525,92438,3081.266666666667,3083.32558025,92499.7674075,92499,3083.3,2.427729857387021,1,1,2,1,2.0,3.0,b'NB_25_LongA.png',3085.753310107387,92572.5993032216,92572,3085.733333333333
176,3085.7668679999997,92573.00604,92573,3085.766666666667,3086.28336425,92588.5009275,92588,3086.266666666667,3088.3169365,92649.508095,92649,3088.3,0.03649878175929189,2,2,7,2,2.0,3.0,b'SB_26_LongA.png',3088.353435281759,92650.60305845278,92650,3088.3333333333335
177,3088.3676455,92651.029365,92651,3088.366666666667,3088.91750775,92667.5252325,92667,3088.9,3090.95104675,92728.5314025,92728,3090.9333333333334,1.6864419543999247,1,2,7,2,2.0,3.0,b'NB_19_LongA.png',3092.6374887044,92779.124661132,92779,3092.633333333333
178,3092.64063275,92779.2189825,92779,3092.633333333333,3093.14052825,92794.2158475,92794,3093.133333333333,3095.1741715,92855.22514499999,92855,3095.1666666666665,0.11151313502341509,1,2,7,2,2.0,3.0,b'NB_5_LongA.png',3095.2856846350232,92858.57053905069,92858,3095.266666666667
179,3095.3180665,92859.541995,92859,3095.3,3095.90354275,92877.1062825,92877,3095.9,3097.9378065,92938.134195,92938,3097.9333333333334,1.7287588996696286,2,1,5,2,1.0,1.0,b'SB_30_ShortA.png',3099.6665653996697,92989.9969619901,92989,3099.633333333333
180,3099.7358074999997,92992.07422499999,92992,3099.733333333333,3100.37806275,93011.3418825,93011,3100.366666666667,3102.4628855,93073.88656500001,93073,3102.4333333333334,-0.5598769085481763,2,2,5,2,2.0,1.0,b'SB_30_LongA.png',3101.903008591452,93057.09025774356,93057,3101.9
