trial_num,fixcross_time,fixation_HZ,fixation_bin,fixation_regarded,start_time,Fstart_HZ,Fstart_bin,Fstart_regarded,stop_time,Fstop_HZ,Fstop_bin,Fstop_regarded,RT,boundary_type,key,resp_value,leftright,accuracy,confidence,frameName,response_time,response_HZ,response_bin,response_regarded
1,2067.745174,62032.355220000005,62032,2067.733333333333,2068.32839075,62049.851722499996,62049,2068.3,2070.3630915,62110.892745,62110,2070.3333333333335,3.1404428993046167,2,1,2,1,2.0,3.0,b'SB_10_LongA.png',2073.5035343993045,62205.106031979136,62205,2073.5
2,2073.52468,62205.7404,62205,2073.5,2074.04123625,62221.237087500005,62221,2074.0333333333333,2076.074842,62282.245259999996,62282,2076.0666666666666,2.4526963827447616,1,1,6,2,1.0,2.0,b'NB_22_LongA.png',2078.5275383827448,62355.82615148234,62355,2078.5
3,2078.5437724999997,62356.31317499999,62356,2078.5333333333333,2079.110315,62373.30945,62373,2079.1,2081.14430675,62434.3292025,62434,2081.133333333333,1.5514889466576278,3,1,6,2,1.0,2.0,b'HB_18_LongA.png',2082.6957956966576,62480.873870899726,62480,2082.6666666666665
4,2082.7082585,62481.247755,62481,2082.7,2083.1914859999997,62495.74457999999,62495,2083.1666666666665,2085.22526925,62556.7580775,62556,2085.2,0.0,2,2,1,1,1.0,0.0,b'SB_43_LongA.png',2085.22526925,62556.7580775,62556,2085.2
5,2085.4468377499998,62563.40513249999,62563,2085.4333333333334,2086.06338525,62581.9015575,62581,2086.0333333333333,2088.0980394999997,62642.94118499999,62642,2088.0666666666666,2.0583662850040128,2,2,7,2,2.0,3.0,b'SB_3_LongA.png',2090.1564057850037,62704.69217355011,62704,2090.133333333333
6,2090.1618559999997,62704.85567999999,62704,2090.133333333333,2090.761719,62722.85157,62722,2090.733333333333,2092.795206,62783.856179999995,62783,2092.766666666667,1.6931276914838236,2,1,2,1,2.0,3.0,b'SB_41_ShortA.png',2094.4883336914836,62834.65001074451,62834,2094.4666666666667
7,2094.5039294999997,62835.11788499999,62835,2094.5,2095.05381825,62851.6145475,62851,2095.0333333333333,2097.0886972499998,62912.66091749999,62912,2097.0666666666666,2.2929865872574737,1,2,2,1,1.0,3.0,b'NB_16_LongA.png',2099.3816838372572,62981.450515117715,62981,2099.366666666667
8,2099.3971537499997,62981.91461249999,62981,2099.366666666667,2099.98036775,62999.4110325,62999,2099.9666666666667,2102.01406,63060.4218,63060,2102.0,1.7628643271673354,1,1,2,1,2.0,3.0,b'NB_22_ShortA.png',2103.7769243271673,63113.30772981502,63113,2103.766666666667
9,2103.7917185,63113.751555,63113,2103.766666666667,2104.2916247499998,63128.74874249999,63128,2104.266666666667,2106.32494425,63189.7483275,63189,2106.3,1.7452536551936646,3,2,6,2,2.0,2.0,b'HB_33_LongA.png',2108.0701979051937,63242.10593715581,63242,2108.0666666666666
10,2108.077077,63242.312309999994,63242,2108.0666666666666,2108.59363425,63257.8090275,63257,2108.5666666666666,2110.6271512499998,63318.814537499995,63318,2110.6,0.0,3,2,1,1,1.0,0.0,b'HB_24_LongA.png',2110.6271512499998,63318.814537499995,63318,2110.6
11,2114.32304075,63429.6912225,63429,2114.3,2114.8562644999997,63445.687934999994,63445,2114.8333333333335,2116.8899535,63506.698605,63506,2116.866666666667,4.7002887702401495,3,2,6,2,2.0,2.0,b'HB_38_LongA.png',2121.59024227024,63647.7072681072,63647,2121.5666666666666
12,2121.6048837499998,63648.146512499996,63648,2121.6,2122.07146475,63662.1439425,63662,2122.0666666666666,2124.105019,63723.150570000005,63723,2124.1,1.1409409903208143,1,1,3,1,2.0,2.0,b'NB_26_ShortA.png',2125.245959990321,63757.37879970963,63757,2125.233333333333
13,2125.25643425,63757.6930275,63757,2125.233333333333,2125.87296225,63776.1888675,63776,2125.866666666667,2127.90631175,63837.1893525,63837,2127.9,1.028473821876105,2,2,7,2,2.0,3.0,b'SB_27_LongA.png',2128.934785571876,63868.04356715628,63868,2128.9333333333334
14,2128.938732,63868.161960000005,63868,2128.9333333333334,2129.52194275,63885.6582825,63885,2129.5,2131.55545475,63946.6636425,63946,2131.5333333333333,1.8729204893024871,2,1,2,1,2.0,3.0,b'SB_52_ShortA.png',2133.4283752393026,64002.85125717908,64002,2133.4
15,2133.440681,64003.22043,64003,2133.4333333333334,2133.97391325,64019.2173975,64019,2133.9666666666667,2136.00743975,64080.223192499994,64080,2136.0,3.5917010895718704,3,2,3,1,1.0,2.0,b'HB_41_LongA.png',2139.5991408395716,64187.97422518715,64187,2139.5666666666666
16,2139.61156,64188.34679999999,64188,2139.6,2140.21142525,64206.3427575,64206,2140.2,2142.24504625,64267.351387500006,64267,2142.233333333333,0.11584799375123112,1,1,2,1,2.0,3.0,b'NB_21_LongA.png',2142.3608942437513,64270.82682731254,64270,2142.3333333333335
17,2142.376749,64271.30247,64271,2142.366666666667,2142.94329525,64288.298857500005,64288,2142.9333333333334,2144.9770075,64349.310225,64349,2144.9666666666667,4.5860469053077395,3,1,6,2,1.0,2.0,b'HB_8_LongA.png',2149.563054405308,64486.89163215923,64486,2149.5333333333333
18,2149.58052225,64487.4156675,64487,2149.5666666666666,2150.080419,64502.41257,64502,2150.0666666666666,2152.113847,64563.41541,64563,2152.1,1.3562198612635257,2,2,7,2,2.0,3.0,b'SB_51_LongA.png',2153.4700668612636,64604.10200583791,64604,2153.4666666666667
19,2153.476264,64604.287919999995,64604,2153.4666666666667,2154.04280725,64621.2842175,64621,2154.0333333333333,2156.076647,64682.29940999999,64682,2156.0666666666666,0.3966000450964202,2,1,3,1,2.0,2.0,b'SB_17_ShortA.png',2156.4732470450963,64694.197411352885,64694,2156.4666666666667
20,2156.476828,64694.30484,64694,2156.4666666666667,2156.993377,64709.801309999995,64709,2156.9666666666667,2159.0270425,64770.811275,64770,2159.0,0.8465440016661887,2,2,7,2,2.0,3.0,b'SB_37_shortA.png',2159.873586501666,64796.207595049986,64796,2159.866666666667
21,2159.8910605,64796.73181500001,64796,2159.866666666667,2160.39095925,64811.7287775,64811,2160.366666666667,2162.42440325,64872.732097500004,64872,2162.4,0.6803147566461121,2,2,7,2,2.0,3.0,b'SB_18_LongA.png',2163.104718006646,64893.14154019939,64893,2163.1
22,2163.1204825,64893.614475,64893,2163.1,2163.65371525,64909.6114575,64909,2163.633333333333,2165.68720675,64970.616202499994,64970,2165.6666666666665,0.7608611165487673,1,2,6,2,2.0,2.0,b'NB_18_ShortA.png',2166.4480678665486,64993.44203599646,64993,2166.4333333333334
23,2166.4658934999998,64993.97680499999,64993,2166.4333333333334,2167.049105,65011.473150000005,65011,2167.0333333333333,2169.082825,65072.484749999996,65072,2169.0666666666666,1.6428860660889768,3,1,6,2,1.0,2.0,b'HB_10_LongA.png',2170.725711066089,65121.771331982665,65121,2170.7
24,2170.7439812499997,65122.31943749999,65122,2170.733333333333,2171.26055025,65137.8165075,65137,2171.233333333333,2173.29398175,65198.8194525,65198,2173.266666666667,0.4136233100143727,3,2,3,1,1.0,2.0,b'HB_31_LongA.png',2173.7076050600144,65211.22815180043,65211,2173.7
25,2173.71787825,65211.5363475,65211,2173.7,2174.301095,65229.032849999996,65229,2174.3,2176.33476375,65290.0429125,65290,2176.3333333333335,1.1461156984587433,1,1,6,2,1.0,2.0,b'NB_8_ShortA.png',2177.480879448459,65324.42638345376,65324,2177.4666666666667
26,2177.49399675,65324.8199025,65324,2177.4666666666667,2178.1105442499997,65343.31632749999,65343,2178.1,2180.1442395,65404.327184999995,65404,2180.133333333333,0.748837487968558,2,1,2,1,2.0,3.0,b'SB_39_LongA.png',2180.8930769879685,65426.79230963905,65426,2180.866666666667
27,2180.9021144999997,65427.06343499999,65427,2180.9,2181.4353352499998,65443.06005749999,65443,2181.4333333333334,2183.4688054999997,65504.06416499999,65504,2183.4666666666667,1.467558462449233,1,2,3,1,1.0,2.0,b'NB_20_LongA.png',2184.936363962449,65548.09091887347,65548,2184.9333333333334
28,2184.95955275,65548.7865825,65548,2184.9333333333334,2185.55942125,65566.7826375,65566,2185.5333333333333,2187.59286075,65627.7858225,65627,2187.5666666666666,1.831339764110453,3,1,6,2,1.0,2.0,b'HB_5_ShortA.png',2189.4242005141105,65682.72601542331,65682,2189.4
29,2189.4396134999997,65683.188405,65683,2189.4333333333334,2190.00615625,65700.1846875,65700,2190.0,2192.040441,65761.21323000001,65761,2192.0333333333333,0.9707372458433383,3,2,3,1,1.0,2.0,b'HB_59_ShortA.png',2193.0111782458434,65790.33534737531,65790,2193.0
30,2193.020594,65790.61782,65790,2193.0,2193.60382,65808.1146,65808,2193.6,2195.6374982499997,65869.1249475,65869,2195.633333333333,1.5445672744244803,2,2,7,2,2.0,3.0,b'SB_56_LongA.png',2197.182065524424,65915.46196573273,65915,2197.1666666666665
31,2197.18630425,65915.5891275,65915,2197.1666666666665,2197.7361877499998,65932.08563249999,65932,2197.733333333333,2199.7707367499997,65993.1221025,65993,2199.766666666667,1.888423032942228,2,1,3,1,2.0,2.0,b'SB_15_LongA.png',2201.659159782942,66049.77479348826,66049,2201.633333333333
32,2201.6768035,66050.304105,66050,2201.6666666666665,2202.29332775,66068.79983250001,66068,2202.266666666667,2204.3270144999997,66129.81043499999,66129,2204.3,0.6620495844908874,2,2,6,2,2.0,2.0,b'SB_11_LongA.png',2204.9890640844906,66149.67192253472,66149,2204.9666666666667
33,2204.9986175,66149.958525,66149,2204.9666666666667,2205.5485,66166.455,66166,2205.5333333333333,2207.581893,66227.45679,66227,2207.5666666666666,2.0044048321578884,1,2,7,2,2.0,3.0,b'NB_21_ShortA.png',2209.586297832158,66287.58893496473,66287,2209.5666666666666
34,2209.589446,66287.68338,66287,2209.5666666666666,2210.17266425,66305.1799275,66305,2210.1666666666665,2212.20622025,66366.1866075,66366,2212.2,1.9821824917016784,1,2,7,2,2.0,3.0,b'NB_3_LongA.png',2214.188402741702,66425.65208225105,66425,2214.1666666666665
35,2214.2061475,66426.184425,66426,2214.2,2214.739366,66442.18097999999,66442,2214.733333333333,2216.772935,66503.18805,66503,2216.766666666667,0.9353426856396254,3,2,3,1,1.0,2.0,b'HB_9_ShortA.png',2217.7082776856396,66531.24833056919,66531,2217.7
36,2217.7205255,66531.615765,66531,2217.7,2218.20376175,66546.1128525,66546,2218.2,2220.23756825,66607.1270475,66607,2220.233333333333,0.070396766444901,2,1,3,1,2.0,2.0,b'SB_47_ShortA.png',2220.307965016445,66609.23895049335,66609,2220.3
37,2220.31930875,66609.5792625,66609,2220.3,2220.9025202499997,66627.0756075,66627,2220.9,2222.93696375,66688.1089125,66688,2222.9333333333334,2.5757258960657055,1,2,2,1,1.0,3.0,b'NB_6_ShortA.png',2225.5126896460656,66765.38068938197,66765,2225.5
38,2225.520217,66765.60651,66765,2225.5,2226.0367862499997,66781.1035875,66781,2226.0333333333333,2228.0701835,66842.105505,66842,2228.0666666666666,2.101061111643503,1,1,2,1,2.0,3.0,b'NB_19_ShortA.png',2230.1712446116435,66905.1373383493,66905,2230.1666666666665
39,2230.1879142499997,66905.6374275,66905,2230.1666666666665,2230.78775975,66923.63279250001,66923,2230.766666666667,2232.8214605,66984.64381499999,66984,2232.8,0.37178571483673295,1,2,7,2,2.0,3.0,b'NB_3_ShortA.png',2233.1932462148366,66995.79738644509,66995,2233.1666666666665
40,2233.2006925,66996.020775,66996,2233.2,2233.80056975,67014.0170925,67014,2233.8,2235.834128,67075.02384,67075,2235.8333333333335,1.8501744440800394,3,2,6,2,2.0,2.0,b'HB_16_LongA.png',2237.68430244408,67130.5290733224,67130,2237.6666666666665
41,2237.687703,67130.63109,67130,2237.6666666666665,2238.1709395,67145.128185,67145,2238.1666666666665,2240.20448375,67206.1345125,67206,2240.2,0.44713257723196875,3,1,6,2,1.0,2.0,b'HB_46_ShortA.png',2240.6516163272317,67219.54848981695,67219,2240.633333333333
42,2240.66145325,67219.84359749999,67219,2240.633333333333,2241.17800425,67235.34012749999,67235,2241.1666666666665,2243.2116607499997,67296.3498225,67296,2243.2,0.5865921286167577,2,2,7,2,2.0,3.0,b'SB_36_ShortA.png',2243.7982528786165,67313.9475863585,67313,2243.766666666667
43,2243.80271775,67314.0815325,67314,2243.8,2244.4026007499997,67332.07802249999,67332,2244.4,2246.43605825,67393.0817475,67393,2246.4333333333334,2.3125477622961625,2,1,2,1,2.0,3.0,b'SB_53_ShortA.png',2248.748606012296,67462.45818036888,67462,2248.733333333333
44,2248.757869,67462.73607,67462,2248.733333333333,2249.25776125,67477.73283749999,67477,2249.233333333333,2251.291183,67538.73548999999,67538,2251.266666666667,1.1886206017734366,3,1,7,2,1.0,3.0,b'HB_15_ShortA.png',2252.4798036017733,67574.3941080532,67574,2252.4666666666667
45,2252.4968725,67574.906175,67574,2252.4666666666667,2253.0467585,67591.402755,67591,2253.0333333333333,2255.08013025,67652.4039075,67652,2255.0666666666666,2.1826800732596894,3,2,6,2,2.0,2.0,b'HB_21_ShortA.png',2257.2628103232596,67717.8843096978,67717,2257.233333333333
46,2257.268443,67718.05329,67718,2257.266666666667,2257.76834075,67733.0502225,67733,2257.766666666667,2259.8018055,67794.054165,67794,2259.8,2.5785897094974644,2,2,6,2,2.0,2.0,b'SB_7_ShortA.png',2262.3803952094972,67871.41185628492,67871,2262.366666666667
47,2262.39273125,67871.7819375,67871,2262.366666666667,2262.95927325,67888.7781975,67888,2262.9333333333334,2264.9929775,67949.789325,67949,2264.9666666666667,2.534350721856754,1,1,2,1,2.0,3.0,b'NB_7_LongA.png',2267.527328221857,68025.81984665571,68025,2267.5
48,2267.54482,68026.3446,68026,2267.5333333333333,2268.0947155,68042.84146499999,68042,2268.0666666666666,2270.12865675,68103.8597025,68103,2270.1,0.20375924908876186,2,2,6,2,2.0,2.0,b'SB_4_ShortA.png',2270.332415999089,68109.97247997267,68109,2270.3
49,2270.33792725,68110.1378175,68110,2270.3333333333335,2270.8711475,68126.134425,68126,2270.866666666667,2272.9044435,68187.133305,68187,2272.9,2.045250497874804,2,2,6,2,2.0,2.0,b'SB_50_LongA.png',2274.949693997875,68248.49081993624,68248,2274.9333333333334
50,2274.9637625,68248.912875,68248,2274.9333333333334,2275.59696725,68267.9090175,68267,2275.5666666666666,2277.6306325,68328.91897500001,68328,2277.6,1.2103333353516064,2,1,3,1,2.0,2.0,b'SB_48_LongA.png',2278.8409658353517,68365.22897506056,68365,2278.8333333333335
51,2278.84695875,68365.4087625,68365,2278.8333333333335,2279.3468605,68380.40581499999,68380,2279.3333333333335,2281.3802235,68441.406705,68441,2281.366666666667,2.461318698929972,3,2,6,2,2.0,2.0,b'HB_11_LongA.png',2283.84154219893,68515.2462659679,68515,2283.8333333333335
52,2283.8554154999997,68515.66246499999,68515,2283.8333333333335,2284.38863425,68531.6590275,68531,2284.366666666667,2286.4220175,68592.660525,68592,2286.4,0.6866610838696943,1,1,3,1,2.0,2.0,b'NB_6_LongA.png',2287.1086785838697,68613.26035751609,68613,2287.1
53,2287.112607,68613.37821,68613,2287.1,2287.6791654999997,68630.374965,68630,2287.6666666666665,2289.7127465,68691.382395,68691,2289.7,1.331166340460186,3,2,6,2,2.0,2.0,b'HB_40_ShortA.png',2291.04391284046,68731.3173852138,68731,2291.0333333333333
54,2291.05327975,68731.5983925,68731,2291.0333333333333,2291.61982975,68748.5948925,68748,2291.6,2293.65348775,68809.60463249999,68809,2293.633333333333,1.9889635485815234,3,2,3,1,1.0,2.0,b'HB_51_LongA.png',2295.6424512985814,68869.27353895744,68869,2295.633333333333
55,2295.6532454999997,68869.597365,68869,2295.633333333333,2296.20313025,68886.0939075,68886,2296.2,2298.236773,68947.10319000001,68947,2298.233333333333,1.2836274527799105,1,1,7,2,1.0,3.0,b'NB_5_LongA.png',2299.52040045278,68985.6120135834,68985,2299.5
56,2299.5306392499997,68985.91917749999,68985,2299.5,2300.09718175,69002.91545249999,69002,2300.0666666666666,2302.13086825,69063.92604749999,69063,2302.1,2.2840017063572304,3,2,6,2,2.0,2.0,b'HB_20_ShortA.png',2304.414869956357,69132.4460986907,69132,2304.4
57,2304.42993325,69132.8979975,69132,2304.4,2304.8964905,69146.89471499999,69146,2304.866666666667,2306.9301925,69207.90577499999,69207,2306.9,1.0189596705313306,1,1,2,1,2.0,3.0,b'NB_25_ShortA.png',2307.9491521705313,69238.47456511593,69238,2307.9333333333334
58,2307.9549739999998,69238.64921999999,69238,2307.9333333333334,2308.43821425,69253.1464275,69253,2308.4333333333334,2310.47158325,69314.1474975,69314,2310.4666666666667,1.8728717425110517,3,2,7,2,2.0,3.0,b'HB_43_ShortA.png',2312.344454992511,69370.33364977533,69370,2312.3333333333335
59,2312.361628,69370.84884,69370,2312.3333333333335,2312.8948527499997,69386.84558249998,69386,2312.866666666667,2314.92857275,69447.8571825,69447,2314.9,0.7121599926686031,2,1,2,1,2.0,3.0,b'SB_40_ShortA.png',2315.6407327426687,69469.22198228005,69469,2315.633333333333
60,2315.6545659999997,69469.63698,69469,2315.633333333333,2316.17112425,69485.1337275,69485,2316.1666666666665,2318.204991,69546.14973,69546,2318.2,2.376738726568874,1,2,2,1,1.0,3.0,b'NB_28_ShortA.png',2320.581729726569,69617.45189179707,69617,2320.5666666666666
61,2320.59426175,69617.8278525,69617,2320.5666666666666,2321.19413425,69635.8240275,69635,2321.1666666666665,2323.22785275,69696.83558249999,69696,2323.2,3.198845571547281,3,2,3,1,1.0,2.0,b'HB_42_LongA.png',2326.426698321547,69792.80094964641,69792,2326.4
62,2326.43660975,69793.0982925,69793,2326.4333333333334,2327.053144,69811.59432,69811,2327.0333333333333,2329.0868499999997,69872.60549999999,69872,2329.0666666666666,1.9743040592948091,2,2,7,2,2.0,3.0,b'SB_2_LongA.png',2331.0611540592945,69931.83462177883,69931,2331.0333333333333
63,2331.06902125,69932.0706375,69932,2331.0666666666666,2331.6355715,69949.067145,69949,2331.633333333333,2333.67030675,70010.1092025,70010,2333.6666666666665,0.23644406563107623,2,2,6,2,2.0,2.0,b'SB_6_LongA.png',2333.906750815631,70017.20252446893,70017,2333.9
64,2333.91526825,70017.4580475,70017,2333.9,2334.398518,70031.95554,70031,2334.366666666667,2336.4322635,70092.967905,70092,2336.4,-0.003412168203794863,1,2,7,2,2.0,3.0,b'NB_23_LongA.png',2336.428851331796,70092.86553995388,70092,2336.4
65,2336.4349815,70093.049445,70093,2336.4333333333334,2337.0348635,70111.045905,70111,2337.0333333333333,2339.06853875,70172.0561625,70172,2339.0666666666666,0.24912593232147628,2,1,2,1,2.0,3.0,b'SB_20_LongA.png',2339.3176646823213,70179.52994046964,70179,2339.3
66,2339.32004375,70179.6013125,70179,2339.3,2339.91995225,70197.5985675,70197,2339.9,2341.9538279999997,70258.61484,70258,2341.9333333333334,1.282254883160931,2,2,6,2,2.0,2.0,b'SB_58_LongA.png',2343.2360828831606,70297.08248649482,70297,2343.233333333333
67,2343.2449389999997,70297.34817,70297,2343.233333333333,2343.744844,70312.34532,70312,2343.733333333333,2345.7782442499997,70373.34732749999,70373,2345.766666666667,-0.7301564755325671,2,2,6,2,2.0,2.0,b'SB_21_LongA.png',2345.048087774467,70351.44263323401,70351,2345.0333333333333
68,2345.06354575,70351.90637249999,70351,2345.0333333333333,2345.59675025,70367.9025075,70367,2345.5666666666666,2347.6305107499998,70428.91532249999,70428,2347.6,1.188558109177393,3,2,7,2,2.0,3.0,b'HB_19_LongA.png',2348.819068859177,70464.57206577531,70464,2348.8
69,2348.83601075,70465.0803225,70465,2348.8333333333335,2349.4025619999998,70482.07685999999,70482,2349.4,2351.436444,70543.09332,70543,2351.4333333333334,2.8911195895125275,3,2,6,2,2.0,2.0,b'HB_60_ShortA.png',2354.3275635895125,70629.82690768538,70629,2354.3
70,2354.3427555,70630.28266499999,70630,2354.3333333333335,2354.80932425,70644.27972749999,70644,2354.8,2356.8430519999997,70705.29156,70705,2356.8333333333335,0.8357167986468994,2,2,6,2,2.0,2.0,b'SB_25_ShortA.png',2357.6787687986466,70730.3630639594,70730,2357.6666666666665
71,2357.6845679999997,70730.53704,70730,2357.6666666666665,2358.16779975,70745.0339925,70745,2358.1666666666665,2360.20133425,70806.0400275,70806,2360.2,2.3341352865172666,1,2,7,2,2.0,3.0,b'NB_13_ShortA.png',2362.535469536517,70876.06408609552,70876,2362.5333333333333
72,2362.53924325,70876.17729749999,70876,2362.5333333333333,2363.07246025,70892.1738075,70892,2363.0666666666666,2365.10589025,70953.1767075,70953,2365.1,1.0036398383308551,1,2,2,1,1.0,3.0,b'NB_25_LongA.png',2366.1095300883308,70983.28590264992,70983,2366.1
73,2366.125724,70983.77172,70983,2366.1,2366.6756152499997,71000.26845749999,71000,2366.6666666666665,2368.709313,71061.27939,71061,2368.7,0.28533200413221493,2,2,7,2,2.0,3.0,b'SB_16_LongA.png',2368.994645004132,71069.83935012396,71069,2368.9666666666667
74,2369.0041324999997,71070.123975,71070,2369.0,2369.55401425,71086.62042749999,71086,2369.5333333333333,2371.58781675,71147.6345025,71147,2371.5666666666666,0.8798116329708137,1,1,2,1,2.0,3.0,b'NB_15_LongA.png',2372.467628382971,71174.02885148913,71174,2372.4666666666667
75,2372.48298425,71174.4895275,71174,2372.4666666666667,2373.032859,71190.98577,71190,2373.0,2375.0664895,71251.994685,71251,2375.0333333333333,4.201443612211733,3,1,3,1,2.0,2.0,b'HB_36_ShortA.png',2379.2679331122117,71378.03799336635,71378,2379.266666666667
76,2379.2798405,71378.395215,71378,2379.266666666667,2379.7630719999997,71392.89215999999,71392,2379.733333333333,2381.79758975,71453.9276925,71453,2381.766666666667,-0.17459688918461325,2,1,7,2,1.0,3.0,b'SB_26_ShortA.png',2381.6229928608154,71448.68978582446,71448,2381.6
77,2381.6350405,71449.051215,71449,2381.633333333333,2382.15161325,71464.54839750001,71464,2382.133333333333,2384.1851655,71525.554965,71525,2384.1666666666665,4.411046576809895,3,1,3,1,2.0,2.0,b'HB_2_ShortA.png',2388.59621207681,71657.8863623043,71657,2388.5666666666666
78,2388.6022117499997,71658.0663525,71658,2388.6,2389.18543025,71675.5629075,71675,2389.1666666666665,2391.219592,71736.58776,71736,2391.2,1.6689387829173938,3,1,6,2,1.0,2.0,b'HB_7_LongA.png',2392.8885307829173,71786.65592348752,71786,2392.866666666667
79,2392.9043874999998,71787.131625,71787,2392.9,2393.53759425,71806.1278275,71806,2393.5333333333333,2395.571255,71867.13764999999,71867,2395.5666666666666,0.40510572086350294,1,2,7,2,2.0,3.0,b'NB_12_ShortA.png',2395.9763607208633,71879.2908216259,71879,2395.9666666666667
80,2395.991003,71879.73009,71879,2395.9666666666667,2396.55755625,71896.72668749999,71896,2396.5333333333333,2398.59095175,71957.7285525,71957,2398.5666666666666,0.8994932381756371,1,2,7,2,2.0,3.0,b'NB_29_LongA.png',2399.4904449881756,71984.71334964527,71984,2399.4666666666667
81,2399.5002987499997,71985.0089625,71985,2399.5,2400.066857,72002.00571,72002,2400.0666666666666,2402.09989425,72062.9968275,72062,2402.0666666666666,2.9501195079428726,3,1,3,1,2.0,2.0,b'HB_39_ShortA.png',2405.050013757943,72151.50041273829,72151,2405.0333333333333
82,2405.06507725,72151.95231749999,72151,2405.0333333333333,2405.61496775,72168.4490325,72168,2405.6,2407.64857,72229.4571,72229,2407.633333333333,1.1001521064536064,3,1,6,2,1.0,2.0,b'HB_56_ShortA.png',2408.7487221064534,72262.46166319361,72262,2408.733333333333
83,2408.7661372499997,72262.98411749999,72262,2408.733333333333,2409.2493675,72277.481025,72277,2409.233333333333,2411.2829457499997,72338.4883725,72338,2411.266666666667,2.9104736716035404,3,2,3,1,1.0,2.0,b'HB_26_ShortA.png',2414.1934194216033,72425.8025826481,72425,2414.1666666666665
84,2414.2063424999997,72426.19027499999,72426,2414.2,2414.806225,72444.18675,72444,2414.8,2416.83983925,72505.19517749999,72505,2416.8333333333335,0.4996884192660218,1,1,2,1,2.0,3.0,b'NB_24_ShortA.png',2417.339527669266,72520.18583007797,72520,2417.3333333333335
85,2417.35416525,72520.6249575,72520,2417.3333333333335,2417.93736725,72538.1210175,72538,2417.9333333333334,2419.97070025,72599.1210075,72599,2419.9666666666667,0.2351338848893647,3,2,2,1,1.0,3.0,b'HB_45_ShortA.png',2420.2058341348893,72606.17502404668,72606,2420.2
86,2420.20953775,72606.2861325,72606,2420.2,2420.7260725,72621.782175,72621,2420.7,2422.759929,72682.79787,72682,2422.733333333333,0.16867746617208468,3,1,6,2,1.0,2.0,b'HB_48_ShortA.png',2422.928606466172,72687.85819398516,72687,2422.9
87,2422.93200575,72687.9601725,72687,2422.9,2423.5485532499997,72706.45659749999,72706,2423.5333333333333,2425.5819425,72767.458275,72767,2425.5666666666666,0.7565825453057187,2,1,7,2,1.0,3.0,b'SB_22_ShortA.png',2426.3385250453057,72790.15575135917,72790,2426.3333333333335
88,2426.346502,72790.39506,72790,2426.3333333333335,2426.92971725,72807.8915175,72807,2426.9,2428.96380075,72868.91402249999,72868,2428.9333333333334,1.7190826731311972,2,1,6,2,1.0,2.0,b'SB_33_LongA.png',2430.682883423131,72920.48650269394,72920,2430.6666666666665
89,2430.6992474999997,72920.97742499999,72920,2430.6666666666665,2431.2991347499997,72938.97404249999,72938,2431.266666666667,2433.3326005,72999.978015,72999,2433.3,1.3489427566382801,2,1,3,1,2.0,2.0,b'SB_60_ShortA.png',2434.681543256638,73040.44629769915,73040,2434.6666666666665
90,2434.696415,73040.89245,73040,2434.6666666666665,2435.2129702499997,73056.38910749998,73056,2435.2,2437.2465872499997,73117.39761749998,73117,2437.233333333333,0.8208999107882846,1,2,2,1,1.0,3.0,b'NB_26_LongA.png',2438.067487160788,73142.02461482363,73142,2438.0666666666666
91,2438.07347025,73142.2041075,73142,2438.0666666666666,2438.5567054999997,73156.70116499999,73156,2438.5333333333333,2440.5901157499998,73217.7034725,73217,2440.5666666666666,1.174216192412132,3,2,2,1,1.0,3.0,b'HB_30_LongA.png',2441.764331942412,73252.92995827236,73252,2441.733333333333
92,2441.7772615,73253.317845,73253,2441.766666666667,2442.2938314999997,73268.81494499999,73268,2442.266666666667,2444.3274619999997,73329.82385999999,73329,2444.3,2.8867374079782167,1,1,3,1,2.0,2.0,b'NB_20_ShortA.png',2447.214199407978,73416.42598223934,73416,2447.2
93,2447.22583575,73416.7750725,73416,2447.2,2447.7590634999997,73432.77190499999,73432,2447.733333333333,2449.7925725,73493.777175,73493,2449.766666666667,1.529133530202671,1,1,3,1,2.0,2.0,b'NB_5_ShortA.png',2451.3217060302027,73539.65118090608,73539,2451.3
94,2451.32706775,73539.8120325,73539,2451.3,2451.91026925,73557.3080775,73557,2451.9,2453.94409775,73618.3229325,73618,2453.9333333333334,0.03158158161386382,3,1,6,2,1.0,2.0,b'HB_28_LongA.png',2453.9756793316137,73619.27037994842,73619,2453.9666666666667
95,2453.98350175,73619.5050525,73619,2453.9666666666667,2454.4667185,73634.001555,73634,2454.4666666666667,2456.50042675,73695.0128025,73695,2456.5,0.6633391743453103,1,1,6,2,1.0,2.0,b'NB_18_LongA.png',2457.163765924345,73714.91297773036,73714,2457.133333333333
96,2457.17962525,73715.3887575,73715,2457.1666666666665,2457.79617275,73733.8851825,73733,2457.766666666667,2459.82959125,73794.88773749999,73794,2459.8,3.9585783470538445,2,1,3,1,2.0,2.0,b'SB_31_ShortA.png',2463.7881695970536,73913.6450879116,73913,2463.766666666667
97,2463.8044852499997,73914.13455749999,73914,2463.8,2464.354379,73930.63137,73930,2464.3333333333335,2466.388059,73991.64177,73991,2466.366666666667,2.950174059056735,3,2,7,2,2.0,3.0,b'HB_57_LongA.png',2469.3382330590566,74080.1469917717,74080,2469.3333333333335
98,2469.3450157499997,74080.3504725,74080,2469.3333333333335,2469.82824525,74094.8473575,74094,2469.8,2471.86205325,74155.8615975,74155,2471.8333333333335,2.413305458656396,3,1,2,1,2.0,3.0,b'HB_27_ShortA.png',2474.2753587086563,74228.26076125969,74228,2474.266666666667
99,2474.293695,74228.81085,74228,2474.266666666667,2474.87690175,74246.3070525,74246,2474.866666666667,2476.911417,74307.34250999999,74307,2476.9,1.4973366099366103,2,2,7,2,2.0,3.0,b'SB_55_LongA.png',2478.4087536099364,74352.26260829809,74352,2478.4
100,2478.4123675,74352.371025,74352,2478.4,2478.995566,74369.86698,74369,2478.9666666666667,2481.02898875,74430.8696625,74430,2481.0,2.890405714562803,1,1,2,1,2.0,3.0,b'NB_4_LongA.png',2483.9193944645626,74517.58183393689,74517,2483.9
101,2483.93447725,74518.0343175,74518,2483.9333333333334,2484.467709,74534.03127,74534,2484.4666666666667,2486.501737,74595.05211,74595,2486.5,3.559986293228576,3,2,6,2,2.0,2.0,b'HB_37_LongA.png',2490.0617232932286,74701.85169879686,74701,2490.0333333333333
102,2490.07578375,74702.2735125,74702,2490.0666666666666,2490.6256787499997,74718.77036249998,74718,2490.6,2492.6593989999997,74779.78197,74779,2492.633333333333,0.7525158990247292,2,2,3,1,1.0,2.0,b'SB_24_LongA.png',2493.4119148990244,74802.35744697074,74802,2493.4
103,2493.4250939999997,74802.75282,74802,2493.4,2494.0249694999998,74820.74908499999,74820,2494.0,2496.0595555,74881.78666499999,74881,2496.0333333333333,2.319901192931866,1,2,7,2,2.0,3.0,b'NB_9_ShortA.png',2498.379456692932,74951.38370078796,74951,2498.366666666667
104,2498.39627225,74951.8881675,74951,2498.366666666667,2498.929494,74967.88482,74967,2498.9,2500.9631314999997,75028.89394499999,75028,2500.9333333333334,2.7088969273900148,3,1,6,2,1.0,2.0,b'HB_22_LongA.png',2503.6720284273897,75110.16085282169,75110,2503.6666666666665
105,2503.6887475,75110.662425,75110,2503.6666666666665,2504.2553005,75127.659015,75127,2504.233333333333,2506.2889824999997,75188.66947499999,75188,2506.266666666667,2.095982632628875,1,1,7,2,1.0,3.0,b'NB_27_ShortA.png',2508.3849651326286,75251.54895397885,75251,2508.366666666667
106,2508.3941689999997,75251.82506999999,75251,2508.366666666667,2508.9607215,75268.821645,75268,2508.9333333333334,2510.99432575,75329.8297725,75329,2510.9666666666667,2.4113016714545665,2,2,3,1,1.0,2.0,b'SB_14_LongA.png',2513.4056274214545,75402.16882264364,75402,2513.4
107,2513.416842,75402.50526,75402,2513.4,2514.03339475,75421.0018425,75421,2514.0333333333333,2516.06704975,75482.0114925,75482,2516.0666666666666,1.1752692488880712,1,1,2,1,2.0,3.0,b'NB_24_LongA.png',2517.242318998888,75517.26956996664,75517,2517.233333333333
108,2517.250093,75517.50279,75517,2517.233333333333,2517.86663025,75535.9989075,75535,2517.8333333333335,2519.9007297499998,75597.0218925,75597,2519.9,3.137736941156618,3,1,6,2,1.0,2.0,b'HB_4_LongA.png',2523.0384666911564,75691.15400073469,75691,2523.0333333333333
109,2523.0461615,75691.384845,75691,2523.0333333333333,2523.62937125,75708.88113750001,75708,2523.6,2525.66288,75769.88639999999,75769,2525.633333333333,2.385053710619104,1,2,2,1,1.0,3.0,b'NB_8_LongA.png',2528.047933710619,75841.43801131856,75841,2528.0333333333333
110,2528.0564987499997,75841.6949625,75841,2528.0333333333333,2528.5564015,75856.692045,75856,2528.5333333333333,2530.5901087499997,75917.70326249998,75917,2530.5666666666666,1.0914744273250108,3,1,3,1,2.0,2.0,b'HB_44_ShortA.png',2531.6815831773247,75950.44749531974,75950,2531.6666666666665
111,2531.6844444999997,75950.53333499999,75950,2531.6666666666665,2532.21767375,75966.5302125,75966,2532.2,2534.251331,76027.53993,76027,2534.233333333333,1.0749277173745213,1,1,2,1,2.0,3.0,b'NB_17_ShortA.png',2535.3262587173745,76059.78776152123,76059,2535.3
112,2535.34181425,76060.2544275,76060,2535.3333333333335,2535.8750354999997,76076.25106499999,76076,2535.866666666667,2537.90975325,76137.2925975,76137,2537.9,0.9369605809770292,1,2,7,2,2.0,3.0,b'NB_1_LongA.png',2538.846713830977,76165.4014149293,76165,2538.8333333333335
113,2538.8609065,76165.827195,76165,2538.8333333333335,2539.3941339999997,76181.82401999999,76181,2539.366666666667,2541.4275252499997,76242.82575749999,76242,2541.4,3.4090937974251574,3,1,3,1,2.0,2.0,b'HB_12_ShortA.png',2544.836619047425,76345.09857142274,76345,2544.8333333333335
114,2544.8489885,76345.469655,76345,2544.8333333333335,2545.3822057499997,76361.46617249999,76361,2545.366666666667,2547.41558025,76422.4674075,76422,2547.4,1.115501965956355,1,1,2,1,2.0,3.0,b'NB_11_ShortA.png',2548.5310822159563,76455.93246647868,76455,2548.5
115,2548.5401345,76456.204035,76456,2548.5333333333333,2549.02336725,76470.70101749999,76470,2549.0,2551.057047,76531.71140999999,76531,2551.0333333333333,1.2664158112675068,1,1,3,1,2.0,2.0,b'NB_19_LongA.png',2552.3234628112673,76569.70388433801,76569,2552.3
116,2552.3416625,76570.249875,76570,2552.3333333333335,2552.87489075,76586.2467225,76586,2552.866666666667,2554.9083155,76647.249465,76647,2554.9,2.318268269591499,2,2,6,2,2.0,2.0,b'SB_34_LongA.png',2557.2265837695913,76716.79751308775,76716,2557.2
117,2557.24404275,76717.32128250001,76717,2557.233333333333,2557.8105514999997,76734.316545,76734,2557.8,2559.8440095,76795.32028500001,76795,2559.8333333333335,2.290416006479063,3,1,6,2,1.0,2.0,b'HB_13_ShortA.png',2562.134425506479,76864.03276519438,76864,2562.133333333333
118,2562.14754,76864.4262,76864,2562.133333333333,2562.64743625,76879.42308749999,76879,2562.633333333333,2564.681314,76940.43942,76940,2564.6666666666665,2.2421483606740367,1,2,6,2,2.0,2.0,b'NB_10_LongA.png',2566.923462360674,77007.70387082022,77007,2566.9
119,2566.92915575,77007.87467250001,77007,2566.9,2567.4457159999997,77023.37147999999,77023,2567.4333333333334,2569.4791365,77084.374095,77084,2569.4666666666667,0.6952555736861541,2,2,2,1,1.0,3.0,b'SB_30_ShortA.png',2570.1743920736862,77105.23176221059,77105,2570.1666666666665
120,2570.18689125,77105.6067375,77105,2570.1666666666665,2570.6867859999998,77120.60358,77120,2570.6666666666665,2572.72105225,77181.6315675,77181,2572.7,1.5026016787378467,3,1,3,1,2.0,2.0,b'HB_1_LongA.png',2574.223653928738,77226.70961786213,77226,2574.2
121,2574.23562125,77227.0686375,77227,2574.233333333333,2574.8021882499997,77244.06564749999,77244,2574.8,2576.835859,77305.07577,77305,2576.8333333333335,2.6172182322115987,1,2,7,2,2.0,3.0,b'NB_2_ShortA.png',2579.4530772322114,77383.59231696634,77383,2579.4333333333334
122,2579.4679975,77384.03992499999,77384,2579.4666666666667,2580.017884,77400.53652,77400,2580.0,2582.0517139999997,77461.55141999999,77461,2582.0333333333333,0.0,1,1,1,1,2.0,0.0,b'NB_29_ShortA.png',2582.0517139999997,77461.55141999999,77461,2582.0333333333333
123,2581.80210575,77454.0631725,77454,2581.8,2582.418573,77472.55718999999,77472,2582.4,2584.4524577499997,77533.5737325,77533,2584.4333333333334,1.5535450460447464,2,2,7,2,2.0,3.0,b'SB_23_LongA.png',2586.0060027960444,77580.18008388134,77580,2586.0
124,2586.01025725,77580.30771749999,77580,2586.0,2586.59347975,77597.8043925,77597,2586.5666666666666,2588.62688875,77658.8066625,77658,2588.6,0.45473398054309655,2,2,2,1,1.0,3.0,b'SB_19_LongA.png',2589.081622730543,77672.4486819163,77672,2589.0666666666666
125,2589.08667875,77672.6003625,77672,2589.0666666666666,2589.6699009999998,77690.09702999999,77690,2589.6666666666665,2591.7034255,77751.10276499999,77751,2591.7,1.2632305252191145,1,2,6,2,2.0,2.0,b'NB_4_ShortA.png',2592.966656025219,77788.99968075656,77788,2592.9333333333334
126,2592.981222,77789.43665999999,77789,2592.9666666666667,2593.48111725,77804.4335175,77804,2593.4666666666667,2595.51464975,77865.4394925,77865,2595.5,0.0,1,2,1,1,1.0,0.0,b'NB_1_ShortA.png',2595.51464975,77865.4394925,77865,2595.5
127,2595.8171817499997,77874.5154525,77874,2595.8,2596.3504052499998,77890.5121575,77890,2596.3333333333335,2598.3838815,77951.516445,77951,2598.366666666667,3.7475800032771076,3,2,6,2,2.0,2.0,b'HB_53_LongA.png',2602.131461503277,78063.94384509831,78063,2602.1
128,2602.151801,78064.55403,78064,2602.133333333333,2602.71835875,78081.5507625,78081,2602.7,2604.75260075,78142.5780225,78142,2604.733333333333,3.2571633488259977,3,2,3,1,1.0,2.0,b'HB_49_LongA.png',2608.009764098826,78240.29292296479,78240,2608.0
129,2608.0194764999997,78240.584295,78240,2608.0,2608.6359952499997,78259.0798575,78259,2608.633333333333,2610.6695609999997,78320.08682999999,78320,2610.6666666666665,1.2884837554302067,2,2,6,2,2.0,2.0,b'SB_29_ShortA.png',2611.95804475543,78358.74134266289,78358,2611.9333333333334
130,2611.9676445,78359.029335,78359,2611.9666666666667,2612.4508775,78373.526325,78373,2612.4333333333334,2614.48448375,78434.5345125,78434,2614.4666666666667,1.3411779748494155,2,1,7,2,1.0,3.0,b'SB_9_ShortA.png',2615.8256617248494,78474.76985174548,78474,2615.8
131,2615.83620875,78475.0862625,78475,2615.8333333333335,2616.4694219999997,78494.08265999999,78494,2616.4666666666667,2618.502901,78555.08703,78555,2618.5,2.0905574038624763,3,2,3,1,1.0,2.0,b'HB_50_ShortA.png',2620.5934584038623,78617.80375211587,78617,2620.5666666666666
132,2620.60540575,78618.1621725,78618,2620.6,2621.2052799999997,78636.15839999999,78636,2621.2,2623.239971,78697.19913,78697,2623.233333333333,3.860504337841121,2,1,7,2,1.0,3.0,b'SB_46_LongA.png',2627.100475337841,78813.01426013523,78813,2627.1
133,2627.11098825,78813.3296475,78813,2627.1,2627.69420975,78830.8262925,78830,2627.6666666666665,2629.7288654999998,78891.86596499999,78891,2629.7,2.670711228303844,3,2,3,1,1.0,2.0,b'HB_35_LongA.png',2632.3995767283036,78971.9873018491,78971,2632.366666666667
134,2632.410482,78972.31446,78972,2632.4,2632.9770252499998,78989.31075749999,78989,2632.9666666666667,2635.0106029999997,79050.31808999999,79050,2635.0,1.8549585289656534,3,1,6,2,1.0,2.0,b'HB_34_ShortA.png',2636.8655615289654,79105.96684586896,79105,2636.8333333333335
135,2636.87446925,79106.2340775,79106,2636.866666666667,2637.3743249999998,79121.22975,79121,2637.366666666667,2639.4080047499997,79182.24014249998,79182,2639.4,1.266483154548041,3,1,6,2,1.0,2.0,b'HB_55_ShortA.png',2640.6744879045477,79220.23463713643,79220,2640.6666666666665
136,2640.6812087499998,79220.43626249999,79220,2640.6666666666665,2641.24776175,79237.4328525,79237,2641.233333333333,2643.2812525,79298.437575,79298,2643.266666666667,2.918731133606343,1,2,2,1,1.0,3.0,b'NB_7_ShortA.png',2646.1999836336063,79385.9995090082,79385,2646.1666666666665
137,2646.216529,79386.49587,79386,2646.2,2646.7830357499997,79403.4910725,79403,2646.766666666667,2648.816757,79464.50271,79464,2648.8,2.380254635172605,2,1,7,2,1.0,3.0,b'SB_54_ShortA.png',2651.1970116351727,79535.91034905518,79535,2651.1666666666665
138,2651.209697,79536.29091,79536,2651.2,2651.7929005,79553.78701500001,79553,2651.766666666667,2653.82727475,79614.8182425,79614,2653.8,0.4482905298573314,2,1,2,1,2.0,3.0,b'SB_28_ShortA.png',2654.2755652798573,79628.26695839572,79628,2654.266666666667
139,2654.28611075,79628.5833225,79628,2654.266666666667,2654.802679,79644.08037,79644,2654.8,2656.8363382499997,79705.09014749998,79705,2656.8333333333335,0.1748041332612047,2,1,2,1,2.0,3.0,b'SB_45_ShortA.png',2657.011142383261,79710.33427149782,79710,2657.0
140,2657.0276719999997,79710.83016,79710,2657.0,2657.5609047499997,79726.8271425,79726,2657.5333333333333,2659.59432225,79787.8296675,79787,2659.5666666666666,2.5867617799376603,3,1,3,1,2.0,2.0,b'HB_25_ShortA.png',2662.1810840299377,79865.43252089813,79865,2662.1666666666665
141,2662.188036,79865.64108,79865,2662.1666666666665,2662.80457,79884.13709999999,79884,2662.8,2664.8381839999997,79945.14551999999,79945,2664.8333333333335,3.3186608423493453,1,1,2,1,2.0,3.0,b'NB_16_ShortA.png',2668.156844842349,80044.70534527047,80044,2668.133333333333
142,2668.16646825,80044.9940475,80044,2668.133333333333,2668.73301225,80061.9903675,80061,2668.7,2670.766517,80122.99551000001,80122,2670.733333333333,1.0786262013789383,1,2,3,1,1.0,2.0,b'NB_28_LongA.png',2671.845143201379,80155.35429604136,80155,2671.8333333333335
143,2671.8530554999998,80155.59166499999,80155,2671.8333333333335,2672.336277,80170.08830999999,80170,2672.3333333333335,2674.36992625,80231.0977875,80231,2674.366666666667,2.5885008820550865,1,2,7,2,2.0,3.0,b'NB_13_LongA.png',2676.958427132055,80308.75281396165,80308,2676.9333333333334
144,2676.973614,80309.20842,80309,2676.9666666666667,2677.5568212499998,80326.70463749999,80326,2677.5333333333333,2679.5902655,80387.707965,80387,2679.5666666666666,1.9858189195510931,3,1,6,2,1.0,2.0,b'HB_54_ShortA.png',2681.576084419551,80447.28253258653,80447,2681.5666666666666
145,2681.58400325,80447.5200975,80447,2681.5666666666666,2682.1338865,80464.016595,80464,2682.133333333333,2684.16755725,80525.02671749999,80525,2684.1666666666665,0.9333327853382798,2,2,2,1,1.0,3.0,b'SB_44_ShortA.png',2685.100890035338,80553.02670106014,80553,2685.1
146,2685.11883375,80553.5650125,80553,2685.1,2685.61873525,80568.5620575,80568,2685.6,2687.65225725,80629.5677175,80629,2687.633333333333,1.8376489536676672,3,1,3,1,2.0,2.0,b'HB_3_LongA.png',2689.4899062036675,80684.69718611002,80684,2689.4666666666667
147,2689.5062895,80685.188685,80685,2689.5,2690.08950375,80702.6851125,80702,2690.0666666666666,2692.123166,80763.69498,80763,2692.1,2.276579980076349,1,2,7,2,2.0,3.0,b'NB_17_LongA.png',2694.399745980076,80831.99237940229,80831,2694.366666666667
148,2694.414566,80832.43698,80832,2694.4,2694.9478015,80848.434045,80848,2694.9333333333334,2696.9814322499997,80909.44296749998,80909,2696.9666666666667,2.0329440076602623,2,1,3,1,2.0,2.0,b'SB_35_ShortA.png',2699.01437625766,80970.43128772979,80970,2699.0
149,2699.0211504999997,80970.634515,80970,2699.0,2699.621016,80988.63048,80988,2699.6,2701.65458,81049.63739999999,81049,2701.633333333333,2.11531925376039,1,1,2,1,2.0,3.0,b'NB_15_ShortA.png',2703.7698992537603,81113.0969776128,81113,2703.766666666667
150,2703.7726199999997,81113.17859999998,81113,2703.766666666667,2704.37250575,81131.1751725,81131,2704.366666666667,2706.4061564999997,81192.18469499999,81192,2706.4,2.6458084702826454,1,1,2,1,2.0,3.0,b'NB_10_ShortA.png',2709.0519649702824,81271.55894910847,81271,2709.0333333333333
151,2709.056451,81271.69353,81271,2709.0333333333333,2709.6063289999997,81288.18986999999,81288,2709.6,2711.6397545,81349.192635,81349,2711.633333333333,2.4781842297961703,1,1,3,1,2.0,2.0,b'NB_23_ShortA.png',2714.117938729796,81423.53816189388,81423,2714.1
152,2714.1289585,81423.868755,81423,2714.1,2714.69549075,81440.8647225,81440,2714.6666666666665,2716.7299359999997,81501.89807999998,81501,2716.7,2.7776578175689792,3,1,3,1,2.0,2.0,b'HB_23_LongA.png',2719.5075938175687,81585.22781452705,81585,2719.5
153,2719.5203619999997,81585.61085999999,81585,2719.5,2720.10356525,81603.1069575,81603,2720.1,2722.13765125,81664.1295375,81664,2722.133333333333,3.621424964418111,2,2,3,1,1.0,2.0,b'SB_59_ShortA.png',2725.759076214418,81772.77228643255,81772,2725.733333333333
154,2725.7670169999997,81773.01051,81773,2725.766666666667,2726.2668987499997,81788.00696249999,81788,2726.266666666667,2728.30046125,81849.0138375,81849,2728.3,0.0,2,2,1,1,1.0,0.0,b'SB_12_ShortA.png',2728.30046125,81849.0138375,81849,2728.3
155,2729.353605,81880.60815,81880,2729.3333333333335,2730.00347575,81900.1042725,81900,2730.0,2732.03795025,81961.1385075,81961,2732.0333333333333,1.4967078778136056,2,2,3,1,1.0,2.0,b'SB_38_ShortA.png',2733.5346581278136,82006.03974383441,82006,2733.5333333333333
156,2733.5414435,82006.243305,82006,2733.5333333333333,2734.091339,82022.74017,82022,2734.0666666666666,2736.12468175,82083.7404525,82083,2736.1,0.028078972274670377,2,2,7,2,2.0,3.0,b'SB_1_LongA.png',2736.1527607222747,82084.58282166824,82084,2736.133333333333
157,2736.16093825,82084.8281475,82084,2736.133333333333,2736.6941629999997,82100.82488999999,82100,2736.6666666666665,2738.7277565,82161.832695,82161,2738.7,1.967563602986047,1,2,6,2,2.0,2.0,b'NB_2_LongA.png',2740.695320102986,82220.85960308959,82220,2740.6666666666665
158,2740.71196875,82221.35906249999,82221,2740.7,2741.228526,82236.85578,82236,2741.2,2743.26314875,82297.8944625,82297,2743.233333333333,1.0082182027908857,1,2,6,2,2.0,2.0,b'NB_30_LongA.png',2744.2713669527907,82328.14100858373,82328,2744.266666666667
159,2744.2745445,82328.236335,82328,2744.266666666667,2744.8910905,82346.73271499999,82346,2744.866666666667,2746.9247112499997,82407.74133749999,82407,2746.9,3.241002501141338,1,1,2,1,2.0,3.0,b'NB_11_LongA.png',2750.165713751141,82504.97141253423,82504,2750.133333333333
160,2750.1756695,82505.270085,82505,2750.1666666666665,2750.6922305,82520.766915,82520,2750.6666666666665,2752.72570275,82581.7710825,82581,2752.7,0.7450429399905261,1,2,3,1,1.0,2.0,b'NB_12_LongA.png',2753.4707456899905,82604.12237069971,82604,2753.4666666666667
161,2753.48099525,82604.4298575,82604,2753.4666666666667,2754.0808672499998,82622.4260175,82622,2754.0666666666666,2756.11438275,82683.4314825,82683,2756.1,1.6575813014933374,1,2,7,2,2.0,3.0,b'NB_9_LongA.png',2757.7719640514933,82733.1589215448,82733,2757.766666666667
162,2757.7829235,82733.48770499999,82733,2757.766666666667,2758.26615975,82747.9847925,82747,2758.233333333333,2760.299723,82808.99169,82808,2760.266666666667,1.7288064065214712,3,1,3,1,2.0,2.0,b'HB_17_LongA.png',2762.0285294065216,82860.85588219564,82860,2762.0
163,2762.0430815,82861.292445,82861,2762.0333333333333,2762.54295475,82876.28864249999,82876,2762.5333333333333,2764.57647525,82937.2942575,82937,2764.5666666666666,1.9163130918896059,3,2,3,1,1.0,2.0,b'HB_58_ShortA.png',2766.4927883418895,82994.7836502567,82994,2766.4666666666667
164,2766.509623,82995.28869,82995,2766.5,2767.0428445,83011.285335,83011,2767.0333333333333,2769.07693625,83072.3080875,83072,2769.0666666666666,1.4022577528958209,1,2,6,2,2.0,2.0,b'NB_14_ShortA.png',2770.479194002896,83114.37582008688,83114,2770.4666666666667
165,2770.4971889999997,83114.91566999999,83114,2770.4666666666667,2771.0970697499997,83132.91209249999,83132,2771.0666666666666,2773.1304535,83193.913605,83193,2773.1,2.7461688304611016,1,2,3,1,1.0,2.0,b'NB_14_LongA.png',2775.876622330461,83276.29866991383,83276,2775.866666666667
166,2775.88576575,83276.5729725,83276,2775.866666666667,2776.4689867499997,83294.06960249999,83294,2776.4666666666667,2778.50259,83355.0777,83355,2778.5,4.408105790578702,3,1,3,1,2.0,2.0,b'HB_47_ShortA.png',2782.9106957905788,83487.32087371737,83487,2782.9
167,2782.92577,83487.77309999999,83487,2782.9,2783.4256674999997,83502.77002499999,83502,2783.4,2785.45981875,83563.7945625,83563,2785.4333333333334,-0.5145236033713445,3,2,6,2,2.0,2.0,b'HB_6_ShortA.png',2784.9452951466287,83548.35885439886,83548,2784.9333333333334
168,2784.954093,83548.62279,83548,2784.9333333333334,2785.503979,83565.11937,83565,2785.5,2787.53728075,83626.11842249999,83626,2787.5333333333333,1.3675938240630785,3,1,3,1,2.0,2.0,b'HB_32_LongA.png',2788.904874574063,83667.14623722188,83667,2788.9
169,2788.9220339999997,83667.66101999999,83667,2788.9,2789.5052554999997,83685.15766499999,83685,2789.5,2791.53900025,83746.1700075,83746,2791.5333333333333,0.7377053719828837,3,1,3,1,2.0,2.0,b'HB_14_LongA.png',2792.2767056219827,83768.30116865948,83768,2792.266666666667
170,2792.2851419999997,83768.55425999999,83768,2792.266666666667,2792.7850315,83783.550945,83783,2792.766666666667,2794.81867125,83844.5601375,83844,2794.8,2.932877899664163,1,1,5,2,1.0,1.0,b'NB_30_ShortA.png',2797.7515491496642,83932.54647448992,83932,2797.733333333333
171,2797.76778625,83933.0335875,83933,2797.766666666667,2798.2843482499998,83948.53044749999,83948,2798.266666666667,2800.318042,84009.54126,84009,2800.3,4.870733080744685,3,2,6,2,2.0,2.0,b'HB_29_ShortA.png',2805.1887750807446,84155.66325242234,84155,2805.1666666666665
172,2805.1951145,84155.853435,84155,2805.1666666666665,2805.7116619999997,84171.34985999999,84171,2805.7,2807.7451885,84232.355655,84232,2807.733333333333,2.004316180740716,3,2,2,1,1.0,3.0,b'HB_52_LongA.png',2809.7495046807408,84292.48514042223,84292,2809.733333333333
173,2809.76507525,84292.9522575,84292,2809.733333333333,2810.33163875,84309.9491625,84309,2810.3,2812.36525125,84370.9575375,84370,2812.3333333333335,2.9310337472779793,2,2,2,1,1.0,3.0,b'SB_5_LongA.png',2815.296284997278,84458.88854991834,84458,2815.266666666667
174,2815.29893275,84458.9679825,84458,2815.266666666667,2815.882153,84476.46459,84476,2815.866666666667,2817.916533,84537.49599,84537,2817.9,2.2918737078944105,2,2,7,2,2.0,3.0,b'SB_32_ShortA.png',2820.2084067078945,84606.25220123683,84606,2820.2
175,2820.2134672499997,84606.4040175,84606,2820.2,2820.74665625,84622.3996875,84622,2820.733333333333,2822.780297,84683.40891,84683,2822.766666666667,2.5926383640544373,2,2,6,2,2.0,2.0,b'SB_57_ShortA.png',2825.3729353640542,84761.18806092163,84761,2825.366666666667
176,2825.38210075,84761.4630225,84761,2825.366666666667,2825.882005,84776.46015,84776,2825.866666666667,2827.9159664999997,84837.478995,84837,2827.9,2.4409209620571346,2,2,7,2,2.0,3.0,b'SB_8_LongA.png',2830.356887462057,84910.70662386171,84910,2830.3333333333335
177,2830.3678815,84911.03644499999,84911,2830.366666666667,2830.8677825,84926.033475,84926,2830.866666666667,2832.90159525,84987.0478575,84987,2832.9,3.0416122143142275,1,1,3,1,2.0,2.0,b'NB_27_LongA.png',2835.943207464314,85078.29622392943,85078,2835.9333333333334
178,2835.957928,85078.73783999999,85078,2835.9333333333334,2836.55781075,85096.73432250001,85096,2836.5333333333333,2838.591738,85157.75214,85157,2838.5666666666666,-0.4872941530775279,2,1,3,1,2.0,2.0,b'SB_42_ShortA.png',2838.1044438469225,85143.13331540767,85143,2838.1
179,2838.1725775,85145.177325,85145,2838.1666666666665,2838.729703,85161.89109,85161,2838.7,2840.77150675,85223.14520249999,85223,2840.766666666667,2.8454455141109065,2,2,6,2,2.0,2.0,b'SB_30_LongA.png',2843.6169522641108,85308.50856792332,85308,2843.6
180,2843.6450422499997,85309.3512675,85309,2843.633333333333,2844.2411887499998,85327.2356625,85327,2844.233333333333,2846.2651082499997,85387.95324749999,85387,2846.233333333333,1.6115376866800943,2,1,2,1,2.0,3.0,b'SB_30_ShortA.png',2847.87664593668,85436.29937810039,85436,2847.866666666667
