trial_num,fixcross_time,fixation_HZ,fixation_bin,fixation_regarded,start_time,Fstart_HZ,Fstart_bin,Fstart_regarded,stop_time,Fstop_HZ,Fstop_bin,Fstop_regarded,RT,boundary_type,key,resp_value,leftright,accuracy,confidence,frameName,response_time,response_HZ,response_bin,response_regarded
1,2310.1123785,69303.371355,69303,2310.1,2310.7289472499997,69321.8684175,69321,2310.7,2312.76313575,69382.8940725,69382,2312.733333333333,3.984919461305253,3,2,6,2,2.0,2.0,b'HB_6_ShortA.png',2316.748055211305,69502.44165633916,69502,2316.733333333333
2,2316.78001425,69503.4004275,69503,2316.766666666667,2317.3632184999997,69520.89655499998,69520,2317.3333333333335,2319.39670825,69581.90124749999,69581,2319.366666666667,2.9210781610163394,1,1,3,1,2.0,2.0,b'NB_13_LongA.png',2322.317786411016,69669.53359233048,69669,2322.3
3,2322.3305029999997,69669.91509,69669,2322.3,2322.8637439999998,69685.91231999999,69685,2322.8333333333335,2324.897089,69746.91267,69746,2324.866666666667,0.24983586912276223,3,2,5,2,2.0,1.0,b'HB_29_LongA.png',2325.146924869123,69754.40774607369,69754,2325.133333333333
4,2325.1761025,69755.283075,69755,2325.1666666666665,2325.72598325,69771.7794975,69771,2325.7,2327.7593859999997,69832.78158,69832,2327.733333333333,1.7351687344780657,3,1,4,1,2.0,1.0,b'HB_2_LongA.png',2329.494554734478,69884.83664203434,69884,2329.4666666666667
5,2329.49851125,69884.9553375,69884,2329.4666666666667,2330.0485262499997,69901.45578749999,69901,2330.0333333333333,2332.37053225,69971.1159675,69971,2332.366666666667,-0.29354775813408196,2,2,6,2,2.0,2.0,b'SB_16_LongA.png',2332.076984491866,69962.30953475597,69962,2332.0666666666666
6,2332.09437725,69962.8313175,69962,2332.0666666666666,2332.67757925,69980.3273775,69980,2332.6666666666665,2334.7108435,70041.325305,70041,2334.7,2.292748552572448,1,2,6,2,2.0,2.0,b'NB_11_LongA.png',2337.0035920525725,70110.10776157718,70110,2337.0
7,2337.0075914999998,70110.227745,70110,2337.0,2337.507498,70125.22494,70125,2337.5,2339.54080825,70186.2242475,70186,2339.5333333333333,0.8686094169097487,1,2,7,2,2.0,3.0,b'NB_8_LongA.png',2340.4094176669096,70212.28253000729,70212,2340.4
8,2340.418746,70212.56237999999,70212,2340.4,2340.95197275,70228.5591825,70228,2340.9333333333334,2342.985933,70289.57798999999,70289,2342.9666666666667,1.8540359204052947,2,2,6,2,2.0,2.0,b'SB_25_ShortA.png',2344.839968920405,70345.19906761215,70345,2344.8333333333335
9,2344.85111925,70345.5335775,70345,2344.8333333333335,2345.3343514999997,70360.03054499999,70360,2345.3333333333335,2347.3678445,70421.03533500001,70421,2347.366666666667,-0.9322312357835472,1,1,2,1,2.0,3.0,b'NB_12_LongA.png',2346.4356132642165,70393.0683979265,70393,2346.4333333333334
10,2346.45059825,70393.5179475,70393,2346.4333333333334,2346.9838135,70409.514405,70409,2346.9666666666667,2349.01703075,70470.51092249999,70470,2349.0,-0.3583200944995042,3,1,3,1,2.0,2.0,b'HB_59_LongA.png',2348.6587106555003,70459.761319665,70459,2348.633333333333
11,2348.6617195,70459.851585,70459,2348.633333333333,2349.19494575,70475.8483725,70475,2349.1666666666665,2351.22882825,70536.8648475,70536,2351.2,3.0925797106174286,3,1,4,1,2.0,1.0,b'HB_17_ShortA.png',2354.3214079606173,70629.64223881852,70629,2354.3
12,2354.3255925,70629.767775,70629,2354.3,2354.892145,70646.76435,70646,2354.866666666667,2356.9253495,70707.76048499999,70707,2356.9,3.806311692809686,1,1,2,1,2.0,3.0,b'NB_18_LongA.png',2360.7316611928095,70821.94983578428,70821,2360.7
13,2360.74037975,70822.2113925,70822,2360.733333333333,2361.273605,70838.20814999999,70838,2361.266666666667,2363.3069105,70899.20731499999,70899,2363.3,4.1325783639913425,3,1,4,1,2.0,1.0,b'HB_39_ShortA.png',2367.4394888639913,71023.18466591973,71023,2367.4333333333334
14,2367.45480925,71023.6442775,71023,2367.4333333333334,2368.00469725,71040.1409175,71040,2368.0,2370.03795375,71101.1386125,71101,2370.0333333333333,3.9870769228436984,3,2,6,2,2.0,2.0,b'HB_19_LongA.png',2374.0250306728435,71220.75092018531,71220,2374.0
15,2374.040328,71221.20984,71221,2374.0333333333333,2374.57354725,71237.2064175,71237,2374.5666666666666,2376.6068757499997,71298.20627249999,71298,2376.6,3.451450574764749,2,2,7,2,2.0,3.0,b'SB_1_ShortA.png',2380.0583263247645,71401.74978974293,71401,2380.0333333333333
16,2380.0736052499997,71402.20815749999,71402,2380.0666666666666,2380.6234845,71418.704535,71418,2380.6,2382.6566844999998,71479.700535,71479,2382.633333333333,1.8193717155081686,1,1,2,1,2.0,3.0,b'NB_20_ShortA.png',2384.476056215508,71534.28168646524,71534,2384.4666666666667
17,2384.491583,71534.74749,71534,2384.4666666666667,2385.041457,71551.24371,71551,2385.0333333333333,2387.0751944999997,71612.25583499999,71612,2387.0666666666666,4.388989704893902,1,2,7,2,2.0,3.0,b'NB_5_ShortA.png',2391.4641842048936,71743.9255261468,71743,2391.4333333333334
18,2391.47925125,71744.3775375,71744,2391.4666666666667,2391.9791379999997,71759.37413999999,71759,2391.9666666666667,2394.0123317499997,71820.3699525,71820,2394.0,1.5764359630120452,1,1,2,1,2.0,3.0,b'NB_3_ShortA.png',2395.5887677130117,71867.66303139036,71867,2395.5666666666666
19,2395.604277,71868.12831,71868,2395.6,2396.15415575,71884.6246725,71884,2396.133333333333,2398.188056,71945.64168,71945,2398.1666666666665,-1.4353642487258185,1,2,7,2,2.0,3.0,b'NB_28_ShortA.png',2396.752691751274,71902.58075253823,71902,2396.733333333333
20,2396.76769475,71903.0308425,71903,2396.766666666667,2397.3175739999997,71919.52721999999,71919,2397.3,2399.351398,71980.54194,71980,2399.3333333333335,0.375060569786001,3,2,3,1,1.0,2.0,b'HB_5_ShortA.png',2399.726458569786,71991.79375709358,71991,2399.7
21,2399.741346,71992.24037999999,71992,2399.733333333333,2400.34121625,72010.23648749999,72010,2400.3333333333335,2402.3745559999998,72071.23667999999,72071,2402.366666666667,0.2003204990469385,2,2,7,2,2.0,3.0,b'SB_60_shortA.png',2402.5748764990467,72077.2462949714,72077,2402.5666666666666
22,2402.59002125,72077.7006375,72077,2402.5666666666666,2403.1732307499997,72095.19692249999,72095,2403.1666666666665,2405.20653275,72156.1959825,72156,2405.2,0.8208939749456476,2,1,2,1,2.0,3.0,b'SB_10_LongA.png',2406.0274267249456,72180.82280174836,72180,2406.0
23,2406.04271225,72181.2813675,72181,2406.0333333333333,2406.542613,72196.27839,72196,2406.5333333333333,2408.576393,72257.29178999999,72257,2408.5666666666666,4.410508350352757,1,1,2,1,2.0,3.0,b'NB_22_LongA.png',2412.9869013503526,72389.60704051057,72389,2412.9666666666667
24,2413.0019052499997,72390.05715749999,72390,2413.0,2413.53512825,72406.0538475,72406,2413.5333333333333,2415.56897625,72467.06928750001,72467,2415.5666666666666,0.9023145370883867,3,2,3,1,1.0,2.0,b'HB_27_ShortA.png',2416.4712907870885,72494.13872361266,72494,2416.4666666666667
25,2416.48618175,72494.5854525,72494,2416.4666666666667,2417.0360625,72511.08187499999,72511,2417.0333333333333,2419.0693535,72572.080605,72572,2419.0666666666666,1.9128855326562189,3,1,5,2,1.0,1.0,b'HB_46_LongA.png',2420.9822390326563,72629.46717097968,72629,2420.9666666666667
26,2420.99762075,72629.9286225,72629,2420.9666666666667,2421.5308385,72645.92515499999,72645,2421.5,2423.56444525,72706.9333575,72706,2423.5333333333333,1.4250401443860028,3,1,6,2,1.0,2.0,b'HB_4_LongA.png',2424.989485394386,72749.68456183159,72749,2424.9666666666667
27,2425.0049504999997,72750.148515,72750,2425.0,2425.52151425,72765.6454275,72765,2425.5,2427.55556425,72826.6669275,72826,2427.5333333333333,1.2045160857087467,3,2,4,1,1.0,1.0,b'HB_52_LongA.png',2428.7600803357086,72862.80241007126,72862,2428.733333333333
28,2428.77460475,72863.2381425,72863,2428.766666666667,2429.42446425,72882.7339275,72882,2429.4,2431.45773775,72943.7321325,72943,2431.4333333333334,0.40067711181472987,2,1,2,1,2.0,3.0,b'SB_40_ShortA.png',2431.8584148618147,72955.75244585444,72955,2431.8333333333335
29,2431.87413875,72956.2241625,72956,2431.866666666667,2432.4573575,72973.72072499999,72973,2432.4333333333334,2434.49109425,73034.7328275,73034,2434.4666666666667,2.775624917616369,2,2,7,2,2.0,3.0,b'SB_21_ShortA.png',2437.2667191676164,73118.0015750285,73118,2437.266666666667
30,2437.28183975,73118.4551925,73118,2437.266666666667,2437.8150689999998,73134.45207,73134,2437.8,2439.848991,73195.46973,73195,2439.8333333333335,1.0708813349192496,1,1,2,1,2.0,3.0,b'NB_1_LongA.png',2440.919872334919,73227.59617004757,73227,2440.9
31,2440.93459025,73228.0377075,73228,2440.9333333333334,2441.4511365,73243.534095,73243,2441.4333333333334,2443.484673,73304.54019,73304,2443.4666666666667,3.1200224685599096,1,1,2,1,2.0,3.0,b'NB_3_LongA.png',2446.60469546856,73398.1408640568,73398,2446.6
32,2446.61975825,73398.59274749999,73398,2446.6,2447.119651,73413.58953,73413,2447.1,2449.15290875,73474.58726249999,73474,2449.133333333333,0.3447062545455992,1,1,2,1,2.0,3.0,b'NB_15_LongA.png',2449.4976150045454,73484.92845013636,73484,2449.4666666666667
33,2449.5128664999997,73485.38599499999,73485,2449.5,2450.12939925,73503.8819775,73503,2450.1,2452.162965,73564.88895,73564,2452.133333333333,2.593211388360942,1,2,6,2,2.0,2.0,b'NB_17_ShortA.png',2454.756176388361,73642.68529165082,73642,2454.733333333333
34,2454.7715424999997,73643.14627499999,73643,2454.766666666667,2455.28811275,73658.6433825,73658,2455.266666666667,2457.32160675,73719.64820249999,73719,2457.3,0.9100637749943417,2,1,3,1,2.0,2.0,b'SB_29_LongA.png',2458.231670524994,73746.95011574982,73746,2458.2
35,2458.24684025,73747.40520749999,73747,2458.233333333333,2458.76339075,73762.9017225,73762,2458.733333333333,2460.796916,73823.90748,73823,2460.766666666667,-2.1208580264355987,3,1,3,1,2.0,2.0,b'HB_38_ShortA.png',2458.676057973564,73760.28173920693,73760,2458.6666666666665
36,2458.6911765,73760.735295,73760,2458.6666666666665,2459.174415,73775.23245,73775,2459.1666666666665,2461.20772725,73836.2318175,73836,2461.2,3.1431947015516926,3,2,5,2,2.0,1.0,b'HB_24_ShortA.png',2464.3509219515518,73930.52765854655,73930,2464.3333333333335
37,2464.3661709999997,73930.98512999999,73930,2464.3333333333335,2464.9327277499997,73947.9818325,73947,2464.9,2466.966814,74009.00442,74009,2466.9666666666667,1.6926399680378381,3,2,4,1,1.0,1.0,b'HB_35_ShortA.png',2468.6594539680377,74059.78361904113,74059,2468.633333333333
38,2468.674082,74060.22246,74060,2468.6666666666665,2469.17398875,74075.21966249999,74075,2469.1666666666665,2471.2080217499997,74136.2406525,74136,2471.2,2.9693242044304498,1,1,2,1,2.0,3.0,b'NB_10_ShortA.png',2474.17734595443,74225.32037863291,74225,2474.1666666666665
39,2474.19190625,74225.7571875,74225,2474.1666666666665,2474.69180675,74240.7542025,74240,2474.6666666666665,2476.7250787499997,74301.75236249999,74301,2476.7,3.269497359957313,1,1,2,1,2.0,3.0,b'NB_2_ShortA.png',2479.994576109957,74399.83728329871,74399,2479.9666666666667
40,2480.010183,74400.30549,74400,2480.0,2480.593394,74417.80182,74417,2480.5666666666666,2482.627152,74478.81456,74478,2482.6,2.403117759502493,1,2,7,2,2.0,3.0,b'NB_23_LongA.png',2485.0302697595025,74550.90809278507,74550,2485.0
41,2485.0452,74551.356,74551,2485.0333333333333,2485.5450619999997,74566.35186,74566,2485.5333333333333,2487.5783162499997,74627.34948749999,74627,2487.5666666666666,2.357584723533364,2,1,3,1,2.0,2.0,b'SB_35_ShortA.png',2489.935900973533,74698.07702920599,74698,2489.9333333333334
42,2489.95141475,74698.5424425,74698,2489.9333333333334,2490.517974,74715.53921999999,74715,2490.5,2492.55125625,74776.5376875,74776,2492.5333333333333,3.2375861265754793,3,1,5,2,1.0,1.0,b'HB_41_LongA.png',2495.7888423765753,74873.66527129726,74873,2495.766666666667
43,2495.80411275,74874.1233825,74874,2495.8,2496.2706747499997,74888.1202425,74888,2496.266666666667,2498.3044855,74949.134565,74949,2498.3,2.5234932664316148,3,2,5,2,2.0,1.0,b'HB_10_ShortA.png',2500.8279787664314,75024.83936299295,75024,2500.8
44,2500.8430252499998,75025.2907575,75025,2500.8333333333335,2501.4095785,75042.287355,75042,2501.4,2503.442888,75103.28664,75103,2503.4333333333334,-2.876874348410638,3,2,5,2,2.0,1.0,b'HB_55_ShortA.png',2500.5660136515894,75016.98040954769,75016,2500.5333333333333
45,2500.58142925,75017.4428775,75017,2500.5666666666666,2501.14797125,75034.4391375,75034,2501.133333333333,2503.1811895,75095.435685,75095,2503.1666666666665,1.5812530815892387,3,1,6,2,1.0,2.0,b'HB_56_ShortA.png',2504.7624425815893,75142.87327744768,75142,2504.733333333333
46,2504.7778197499997,75143.33459249999,75143,2504.766666666667,2505.261062,75157.83186,75157,2505.233333333333,2507.2944755,75218.834265,75218,2507.266666666667,3.3919894590217154,3,1,5,2,1.0,1.0,b'HB_15_LongA.png',2510.6864649590216,75320.59394877065,75320,2510.6666666666665
47,2510.7016175,75321.04852499999,75321,2510.7,2511.2181775,75336.545325,75336,2511.2,2513.25127575,75397.5382725,75397,2513.233333333333,-0.29438011324964464,2,1,3,1,2.0,2.0,b'SB_38_ShortA.png',2512.9568956367502,75388.7068691025,75388,2512.9333333333334
48,2512.9723369999997,75389.17010999999,75389,2512.9666666666667,2513.45547975,75403.6643925,75403,2513.4333333333334,2515.4887525,75464.662575,75464,2515.4666666666667,1.4932155674905516,1,1,2,1,2.0,3.0,b'NB_17_LongA.png',2516.9819680674905,75509.45904202471,75509,2516.9666666666667
49,2516.99749325,75509.9247975,75509,2516.9666666666667,2517.51405575,75525.4216725,75525,2517.5,2519.5472075,75586.416225,75586,2519.5333333333333,-0.49115644217818044,2,2,7,2,2.0,3.0,b'SB_8_ShortA.png',2519.0560510578216,75571.68153173465,75571,2519.0333333333333
50,2519.071498,75572.14494,75572,2519.0666666666666,2519.5713944999998,75587.14183499999,75587,2519.5666666666666,2521.6046045,75648.138135,75648,2521.6,2.6298490957997274,2,2,7,2,2.0,3.0,b'SB_49_ShortA.png',2524.2344535957996,75727.033607874,75727,2524.233333333333
51,2524.2498392499997,75727.4951775,75727,2524.233333333333,2524.71640075,75741.4920225,75741,2524.7,2526.74961075,75802.48832250001,75802,2526.733333333333,1.8055087852990255,1,2,7,2,2.0,3.0,b'NB_1_ShortA.png',2528.555119535299,75856.65358605898,75856,2528.5333333333333
52,2528.5706505,75857.119515,75857,2528.5666666666666,2529.0705385,75872.116155,75872,2529.0666666666666,2531.10362925,75933.1088775,75933,2531.1,3.8234105611918494,3,1,5,2,1.0,1.0,b'HB_26_LongA.png',2534.9270398111917,76047.81119433575,76047,2534.9
53,2534.9425644999997,76048.27693499999,76048,2534.9333333333334,2535.44244625,76063.2733875,76063,2535.4333333333334,2537.4756345,76124.269035,76124,2537.4666666666667,2.1826569260738324,2,2,7,2,2.0,3.0,b'SB_14_LongA.png',2539.658291426074,76189.74874278222,76189,2539.633333333333
54,2539.6737595,76190.212785,76190,2539.6666666666665,2540.2236485,76206.70945499999,76206,2540.2,2542.25676775,76267.70303250001,76267,2542.233333333333,1.8359793334966525,2,2,6,2,2.0,2.0,b'SB_51_ShortA.png',2544.0927470834968,76322.78241250491,76322,2544.0666666666666
55,2544.10837775,76323.25133249999,76323,2544.1,2544.64156925,76339.2470775,76339,2544.633333333333,2546.674717,76400.24150999999,76400,2546.6666666666665,2.0715847982210107,1,2,6,2,2.0,2.0,b'NB_30_ShortA.png',2548.746301798221,76462.38905394662,76462,2548.733333333333
56,2548.76177075,76462.85312249999,76462,2548.733333333333,2549.32832775,76479.8498325,76479,2549.3,2551.36146125,76540.8438375,76540,2551.3333333333335,0.31736594799440354,1,1,3,1,2.0,2.0,b'NB_13_ShortA.png',2551.6788271979945,76550.36481593983,76550,2551.6666666666665
57,2551.6944329999997,76550.83299,76550,2551.6666666666665,2552.2609695,76567.829085,76567,2552.233333333333,2554.294069,76628.82207,76628,2554.266666666667,2.4897061545634642,1,2,7,2,2.0,3.0,b'NB_26_ShortA.png',2556.7837751545635,76703.5132546369,76703,2556.766666666667
58,2556.7994102499997,76703.98230749999,76703,2556.766666666667,2557.31597875,76719.4793625,76719,2557.3,2559.349225,76780.47675,76780,2559.3333333333335,1.5547664127661847,3,1,3,1,2.0,2.0,b'HB_36_ShortA.png',2560.903991412766,76827.11974238299,76827,2560.9
59,2560.9193055,76827.579165,76827,2560.9,2561.4025389999997,76842.07616999999,76842,2561.4,2563.4357615,76903.072845,76903,2563.4333333333334,2.5963268532650545,2,1,3,1,2.0,2.0,b'SB_32_ShortA.png',2566.032088353265,76980.96265059795,76980,2566.0
60,2566.0474225,76981.422675,76981,2566.0333333333333,2566.58064125,76997.4192375,76997,2566.5666666666666,2568.61381,77058.41429999999,77058,2568.6,2.9497631436679512,3,1,4,1,2.0,1.0,b'HB_9_ShortA.png',2571.563573143668,77146.90719431003,77146,2571.5333333333333
61,2571.578917,77147.36751,77147,2571.5666666666666,2572.078841,77162.36523,77162,2572.0666666666666,2574.1119827499997,77223.35948249999,77223,2574.1,1.6008081078180112,2,1,3,1,2.0,2.0,b'SB_28_ShortA.png',2575.7127908578177,77271.38372573453,77271,2575.7
62,2575.7283937499997,77271.85181249998,77271,2575.7,2576.261599,77287.84797,77287,2576.233333333333,2578.29478475,77348.84354249999,77348,2578.266666666667,-0.23210935547831468,1,2,7,2,2.0,3.0,b'NB_9_ShortA.png',2578.0626753945216,77341.88026183564,77341,2578.0333333333333
63,2578.07815575,77342.3446725,77342,2578.0666666666666,2578.5613829999998,77356.84148999999,77356,2578.5333333333333,2580.5946125,77417.838375,77417,2580.5666666666666,-1.649402835406363,1,2,7,2,2.0,3.0,b'NB_18_ShortA.png',2578.9452096645937,77368.35628993782,77368,2578.9333333333334
64,2578.9607204999998,77368.821615,77368,2578.9333333333334,2579.42728675,77382.8186025,77382,2579.4,2581.460499,77443.81496999999,77443,2581.4333333333334,2.479286330199102,3,2,4,1,1.0,1.0,b'HB_16_LongA.png',2583.939785330199,77518.19355990597,77518,2583.9333333333334
65,2583.95517725,77518.6553175,77518,2583.9333333333334,2584.5050625,77535.151875,77535,2584.5,2586.538289,77596.14867,77596,2586.5333333333333,3.6181061822280753,3,1,5,2,1.0,1.0,b'HB_30_ShortA.png',2590.156395182228,77704.69185546684,77704,2590.133333333333
66,2590.1718225,77705.154675,77705,2590.1666666666665,2590.72157225,77721.6471675,77721,2590.7,2592.75487575,77782.6462725,77782,2592.733333333333,1.6808436365099624,2,2,6,2,2.0,2.0,b'SB_37_LongA.png',2594.43571938651,77833.0715815953,77833,2594.4333333333334
67,2594.45113,77833.5339,77833,2594.4333333333334,2594.951032,77848.53096,77848,2594.9333333333334,2596.9842215,77909.52664499999,77909,2596.9666666666667,0.5576904913468752,2,2,6,2,2.0,2.0,b'SB_57_ShortA.png',2597.5419119913468,77926.2573597404,77926,2597.5333333333333
68,2597.55729975,77926.7189925,77926,2597.5333333333333,2598.1071855,77943.215565,77943,2598.1,2600.14036425,78004.2109275,78004,2600.133333333333,1.8427367856784258,1,1,2,1,2.0,3.0,b'NB_29_ShortA.png',2601.9831010356784,78059.49303107035,78059,2601.9666666666667
69,2601.9985615,78059.95684500001,78059,2601.9666666666667,2602.515114,78075.45341999999,78075,2602.5,2604.5483265,78136.449795,78136,2604.5333333333333,1.536520539142657,2,1,2,1,2.0,3.0,b'SB_48_LongA.png',2606.0848470391425,78182.54541117427,78182,2606.0666666666666
70,2606.10026375,78183.0079125,78183,2606.1,2606.6001555,78198.004665,78198,2606.6,2608.63348225,78259.0044675,78259,2608.633333333333,1.895265442202799,1,1,3,1,2.0,2.0,b'NB_12_ShortA.png',2610.5287476922026,78315.86243076608,78315,2610.5
71,2610.54403625,78316.3210875,78316,2610.5333333333333,2611.0939397499997,78332.8181925,78332,2611.0666666666666,2613.12712175,78393.81365249999,78393,2613.1,5.352795502956724,3,2,5,2,2.0,1.0,b'HB_7_LongA.png',2618.4799172529565,78554.39751758869,78554,2618.4666666666667
72,2618.49540675,78554.8622025,78554,2618.4666666666667,2619.028617,78570.85850999999,78570,2619.0,2621.06203375,78631.8610125,78631,2621.0333333333333,0.5652771229215432,3,1,6,2,1.0,2.0,b'HB_49_ShortA.png',2621.6273108729215,78648.81932618764,78648,2621.6
73,2621.64259825,78649.2779475,78649,2621.633333333333,2622.142484,78664.27452,78664,2622.133333333333,2624.1757077499997,78725.27123249999,78725,2624.1666666666665,0.30819566300488077,2,1,3,1,2.0,2.0,b'SB_34_ShortA.png',2624.4839034130046,78734.51710239013,78734,2624.4666666666667
74,2624.4994195,78734.98258499999,78734,2624.4666666666667,2625.0158472499998,78750.4754175,78750,2625.0,2627.04910025,78811.4730075,78811,2627.0333333333333,5.579816335259238,3,1,5,2,1.0,1.0,b'HB_44_ShortA.png',2632.628916585259,78978.86749755777,78978,2632.6
75,2632.6443934999998,78979.331805,78979,2632.633333333333,2633.12762275,78993.8286825,78993,2633.1,2635.1607759999997,79054.82328,79054,2635.133333333333,0.5401951395906508,2,2,7,2,2.0,3.0,b'SB_4_LongA.png',2635.7009711395904,79071.02913418772,79071,2635.7
76,2635.71651875,79071.4955625,79071,2635.7,2636.2330835,79086.99250499999,79086,2636.2,2638.2663724999998,79147.99117499999,79147,2638.233333333333,0.9978112987300847,2,2,6,2,2.0,2.0,b'SB_55_ShortA.png',2639.26418379873,79177.92551396189,79177,2639.233333333333
77,2639.279475,79178.38424999999,79178,2639.266666666667,2639.76269925,79192.8809775,79192,2639.733333333333,2641.79619875,79253.88596249999,79253,2641.766666666667,2.440125818073284,3,2,5,2,2.0,1.0,b'HB_58_ShortA.png',2644.236324568073,79327.08973704219,79327,2644.233333333333
78,2644.2513825,79327.541475,79327,2644.233333333333,2644.75126925,79342.5380775,79342,2644.733333333333,2646.7845187499997,79403.5355625,79403,2646.766666666667,1.6795489731011912,2,2,6,2,2.0,2.0,b'SB_13_LongA.png',2648.464067723101,79453.92203169303,79453,2648.4333333333334
79,2648.4795664999997,79454.386995,79454,2648.4666666666667,2649.012777,79470.38331,79470,2649.0,2651.046029,79531.38087000001,79531,2651.0333333333333,0.7524468921183143,3,1,5,2,1.0,1.0,b'HB_25_LongA.png',2651.7984758921184,79553.95427676356,79553,2651.766666666667
80,2651.81396675,79554.4190025,79554,2651.8,2652.3469379999997,79570.40813999998,79570,2652.3333333333335,2654.38059975,79631.41799249999,79631,2654.366666666667,3.2999786004365887,2,1,3,1,2.0,2.0,b'SB_58_LongA.png',2657.6805783504365,79730.41735051309,79730,2657.6666666666665
81,2657.695828,79730.87484,79730,2657.6666666666665,2658.1957212499997,79745.8716375,79745,2658.1666666666665,2660.2290955,79806.872865,79806,2660.2,1.9438410382717848,2,1,2,1,2.0,3.0,b'SB_24_LongA.png',2662.1729365382716,79865.18809614815,79865,2662.1666666666665
82,2662.18821175,79865.6463525,79865,2662.1666666666665,2662.67141725,79880.1425175,79880,2662.6666666666665,2664.704531,79941.13592999999,79941,2664.7,0.7336217719712295,3,1,4,1,2.0,1.0,b'HB_34_ShortA.png',2665.438152771971,79963.14458315913,79963,2665.4333333333334
83,2665.4535994999997,79963.607985,79963,2665.4333333333334,2665.9532245,79978.596735,79978,2665.9333333333334,2667.98665175,80039.5995525,80039,2667.9666666666667,1.9340381220099516,1,2,7,2,2.0,3.0,b'NB_24_LongA.png',2669.92068987201,80097.6206961603,80097,2669.9
84,2669.9362895,80098.088685,80098,2669.9333333333334,2670.50284725,80115.0854175,80115,2670.5,2672.53615275,80176.0845825,80176,2672.5333333333333,4.550024642900098,1,1,2,1,2.0,3.0,b'NB_21_LongA.png',2677.0861773929,80312.585321787,80312,2677.0666666666666
85,2677.10146575,80313.0439725,80313,2677.1,2677.6013602499997,80328.04080749999,80328,2677.6,2679.63475175,80389.0425525,80389,2679.633333333333,1.975511254509911,2,2,7,2,2.0,3.0,b'SB_31_LongA.png',2681.6102630045098,80448.3078901353,80448,2681.6
86,2681.6255309999997,80448.76593,80448,2681.6,2682.1421002499997,80464.26300749999,80464,2682.133333333333,2684.175308,80525.25924,80525,2684.1666666666665,2.2791079105518293,3,2,5,2,2.0,1.0,b'HB_31_LongA.png',2686.4544159105517,80593.63247731655,80593,2686.4333333333334
87,2686.4699367499998,80594.0981025,80594,2686.4666666666667,2686.95316,80608.5948,80608,2686.9333333333334,2688.98632,80669.5896,80669,2688.9666666666667,2.312835856922902,3,1,3,1,2.0,2.0,b'HB_11_LongA.png',2691.299155856923,80738.9746757077,80738,2691.266666666667
88,2691.314714,80739.44142,80739,2691.3,2691.8312809999998,80754.93843,80754,2691.8,2693.8644747499998,80815.93424249999,80815,2693.8333333333335,2.1272884396312293,2,1,3,1,2.0,2.0,b'SB_46_ShortA.png',2695.991763189631,80879.75289568893,80879,2695.9666666666667
89,2696.007271,80880.21813,80880,2696.0,2696.55717375,80896.7152125,80896,2696.5333333333333,2698.5903209999997,80957.70963,80957,2698.5666666666666,3.6399512829084415,1,1,3,1,2.0,2.0,b'NB_7_LongA.png',2702.230272282908,81066.90816848725,81066,2702.2
90,2702.2457437499997,81067.3723125,81067,2702.233333333333,2702.79563275,81083.8689825,81083,2702.766666666667,2704.8289775,81144.86932499999,81144,2704.8,2.8581901927827857,2,2,6,2,2.0,2.0,b'SB_44_ShortA.png',2707.6871676927826,81230.61503078348,81230,2707.6666666666665
91,2707.7025315,81231.075945,81231,2707.7,2708.2357549999997,81247.07264999999,81247,2708.233333333333,2710.268905,81308.06715,81308,2710.266666666667,2.7672498737229034,3,2,5,2,2.0,1.0,b'HB_13_LongA.png',2713.036154873723,81391.08464621169,81391,2713.0333333333333
92,2713.0516654999997,81391.54996499998,81391,2713.0333333333333,2713.61820825,81408.5462475,81408,2713.6,2715.65157525,81469.5472575,81469,2715.633333333333,4.703313993435586,1,2,7,2,2.0,3.0,b'NB_14_ShortA.png',2720.3548892434355,81610.64667730307,81610,2720.3333333333335
93,2720.37013325,81611.1039975,81611,2720.366666666667,2720.9366704999998,81628.100115,81628,2720.9333333333334,2722.9697567499998,81689.0927025,81689,2722.9666666666667,2.168393516447395,2,2,7,2,2.0,3.0,b'SB_54_LongA.png',2725.138150266447,81754.14450799342,81754,2725.133333333333
94,2725.1537825,81754.613475,81754,2725.133333333333,2725.6703325,81770.109975,81770,2725.6666666666665,2727.7034645,81831.10393499999,81831,2727.7,1.5964711081469432,2,2,7,2,2.0,3.0,b'SB_36_LongA.png',2729.299935608147,81878.9980682444,81878,2729.266666666667
95,2729.315378,81879.46134,81879,2729.3,2729.7986135,81893.958405,81893,2729.766666666667,2731.8317509999997,81954.95253,81954,2731.8,1.9333881078637205,1,1,2,1,2.0,3.0,b'NB_2_LongA.png',2733.7651391078634,82012.9541732359,82012,2733.733333333333
96,2733.78062775,82013.4188325,82013,2733.766666666667,2734.2804785,82028.414355,82028,2734.266666666667,2736.3136725,82089.410175,82089,2736.3,1.0467188695911318,2,2,7,2,2.0,3.0,b'SB_59_ShortA.png',2737.360391369591,82120.81174108773,82120,2737.3333333333335
97,2737.3760012499997,82121.2800375,82121,2737.366666666667,2737.85914775,82135.7744325,82135,2737.8333333333335,2739.8923987499998,82196.77196249999,82196,2739.866666666667,2.1869886678177863,2,2,6,2,2.0,2.0,b'SB_27_LongA.png',2742.0793874178175,82262.38162253452,82262,2742.0666666666666
98,2742.09501375,82262.8504125,82262,2742.0666666666666,2742.611546,82278.34638,82278,2742.6,2744.64479475,82339.3438425,82339,2744.633333333333,3.4601323500392027,3,1,4,1,2.0,1.0,b'HB_18_LongA.png',2748.1049271000393,82443.14781300118,82443,2748.1
99,2748.12036725,82443.6110175,82443,2748.1,2748.63694425,82459.1083275,82459,2748.633333333333,2750.67005475,82520.1016425,82520,2750.6666666666665,2.685125202231575,3,1,4,1,2.0,1.0,b'HB_48_ShortA.png',2753.3551799522315,82600.65539856695,82600,2753.3333333333335
100,2753.3705944999997,82601.117835,82601,2753.366666666667,2753.92048225,82617.6144675,82617,2753.9,2755.9536387499998,82678.6091625,82678,2755.9333333333334,0.37698497451492585,3,1,5,2,1.0,1.0,b'HB_3_LongA.png',2756.3306237245147,82689.91871173544,82689,2756.3
101,2756.3461817499997,82690.38545249999,82690,2756.3333333333335,2756.846066,82705.38198,82705,2756.8333333333335,2758.8792667499997,82766.37800249999,82766,2758.866666666667,3.093451900553191,1,1,7,2,1.0,3.0,b'NB_25_LongA.png',2761.972718650553,82859.18155951658,82859,2761.9666666666667
102,2761.98807425,82859.6422275,82859,2761.9666666666667,2762.52130325,82875.6390975,82875,2762.5,2764.55451675,82936.6355025,82936,2764.5333333333333,0.5656171782757156,1,1,3,1,2.0,2.0,b'NB_21_ShortA.png',2765.1201339282757,82953.60401784827,82953,2765.1
103,2765.1355707499997,82954.0671225,82954,2765.133333333333,2765.60209575,82968.0628725,82968,2765.6,2767.63531925,83029.0595775,83029,2767.633333333333,1.172696968598757,1,1,2,1,2.0,3.0,b'NB_30_LongA.png',2768.808016218599,83064.24048655796,83064,2768.8
104,2768.82348275,83064.7044825,83064,2768.8,2769.35671825,83080.70154750001,83080,2769.3333333333335,2771.3898517499997,83141.6955525,83141,2771.366666666667,-0.3372758250043262,2,1,3,1,2.0,2.0,b'SB_33_ShortA.png',2771.0525759249954,83131.57727774986,83131,2771.0333333333333
105,2771.06813725,83132.0441175,83132,2771.0666666666666,2771.56803175,83147.0409525,83147,2771.5666666666666,2773.60118575,83208.0355725,83208,2773.6,1.5721889634733088,2,1,3,1,2.0,2.0,b'SB_53_LongA.png',2775.173374713473,83255.2012414042,83255,2775.1666666666665
106,2775.188987,83255.66961,83255,2775.1666666666665,2775.7555285,83272.665855,83272,2775.733333333333,2777.78879625,83333.66388749999,83333,2777.766666666667,2.5699598782812245,2,1,2,1,2.0,3.0,b'SB_18_ShortA.png',2780.358756128281,83410.76268384843,83410,2780.3333333333335
107,2780.3741502499997,83411.2245075,83411,2780.366666666667,2780.8573872499996,83425.72161749999,83425,2780.8333333333335,2782.8905702499997,83486.7171075,83486,2782.866666666667,0.9337463786941953,3,1,5,2,1.0,1.0,b'HB_32_ShortA.png',2783.824316628694,83514.72949886082,83514,2783.8
108,2783.839977,83515.19931,83515,2783.8333333333335,2784.3731385,83531.194155,83531,2784.366666666667,2786.4065465,83592.19639499999,83592,2786.4,0.8192979184677824,3,2,5,2,2.0,1.0,b'HB_21_ShortA.png',2787.2258444184677,83616.77533255403,83616,2787.2
109,2787.2411602499997,83617.23480749999,83617,2787.233333333333,2787.7410179999997,83632.23053999999,83632,2787.733333333333,2789.774215,83693.22645,83693,2789.766666666667,1.099777525436366,3,1,4,1,2.0,1.0,b'HB_14_LongA.png',2790.8739925254363,83726.2197757631,83726,2790.866666666667
110,2790.8894135,83726.682405,83726,2790.866666666667,2791.405973,83742.17919,83742,2791.4,2793.43915975,83803.1747925,83803,2793.4333333333334,2.6744010259280913,3,2,3,1,1.0,2.0,b'HB_8_ShortA.png',2796.113560775928,83883.40682327784,83883,2796.1
111,2796.1289227499997,83883.86768249999,83883,2796.1,2796.6788134999997,83900.36440499999,83900,2796.6666666666665,2798.71201475,83961.3604425,83961,2798.7,2.650360193249071,3,1,4,1,2.0,1.0,b'HB_23_LongA.png',2801.362374943249,84040.87124829747,84040,2801.3333333333335
112,2801.37780075,84041.3340225,84041,2801.366666666667,2801.91090875,84057.32726250001,84057,2801.9,2803.944435,84118.33305,84118,2803.9333333333334,1.2737084812833928,2,2,7,2,2.0,3.0,b'SB_11_ShortA.png',2805.2181434812833,84156.5443044385,84156,2805.2
113,2805.2333275,84156.999825,84156,2805.2,2805.78320825,84173.49624749999,84173,2805.766666666667,2807.81637475,84234.4912425,84234,2807.8,2.1644094777002465,2,2,5,2,2.0,1.0,b'SB_6_ShortA.png',2809.9807842277,84299.423526831,84299,2809.9666666666667
114,2809.9963224999997,84299.88967499998,84299,2809.9666666666667,2810.47956425,84314.38692749999,84314,2810.4666666666667,2812.51273175,84375.3819525,84375,2812.5,1.7168416302883998,2,1,2,1,2.0,3.0,b'SB_39_LongA.png',2814.2295733802885,84426.88720140865,84426,2814.2
115,2814.24506175,84427.3518525,84427,2814.233333333333,2814.7282744999998,84441.848235,84441,2814.7,2816.7614774999997,84502.844325,84502,2816.733333333333,-1.3837632273789495,1,2,3,1,1.0,2.0,b'NB_16_LongA.png',2815.377714272621,84461.33142817863,84461,2815.366666666667
116,2815.3931865,84461.795595,84461,2815.366666666667,2815.859754,84475.79262000001,84475,2815.8333333333335,2817.8929645,84536.78893499999,84536,2817.866666666667,2.173495038674446,2,1,2,1,2.0,3.0,b'SB_22_LongA.png',2820.0664595386743,84601.99378616022,84601,2820.0333333333333
117,2820.0819217499998,84602.45765249999,84602,2820.0666666666666,2820.5984722499998,84617.9541675,84617,2820.5666666666666,2822.6316495,84678.949485,84678,2822.6,0.9798423989268485,2,2,5,2,2.0,1.0,b'SB_17_ShortA.png',2823.611491898927,84708.34475696781,84708,2823.6
118,2823.6268674999997,84708.80602499998,84708,2823.6,2824.09344375,84722.80331250001,84722,2824.0666666666666,2826.1268225,84783.80467499999,84783,2826.1,3.375712234614184,2,1,3,1,2.0,2.0,b'SB_42_LongA.png',2829.502534734614,84885.07604203842,84885,2829.5
119,2829.5177142499997,84885.53142749998,84885,2829.5,2830.05094125,84901.5282375,84901,2830.0333333333333,2832.0842294999998,84962.526885,84962,2832.0666666666666,1.704103223659331,3,1,4,1,2.0,1.0,b'HB_47_LongA.png',2833.788332723659,85013.64998170978,85013,2833.766666666667
120,2833.803711,85014.11133,85014,2833.8,2834.2869605,85028.608815,85028,2834.266666666667,2836.3202257499997,85089.60677249999,85089,2836.3,0.41973739783861674,3,1,5,2,1.0,1.0,b'HB_12_ShortA.png',2836.7399631478384,85102.19889443515,85102,2836.733333333333
121,2836.7554235,85102.662705,85102,2836.733333333333,2837.2386975,85117.160925,85117,2837.233333333333,2839.2718305,85178.15491499999,85178,2839.266666666667,1.9649592387722805,2,1,6,2,1.0,2.0,b'SB_15_LongA.png',2841.236789738772,85237.10369216316,85237,2841.233333333333
122,2841.2523905,85237.571715,85237,2841.233333333333,2841.802286,85254.06858,85254,2841.8,2843.8358945,85315.076835,85315,2843.8333333333335,1.679698102059774,1,2,2,1,1.0,3.0,b'NB_19_LongA.png',2845.5155926020598,85365.4677780618,85365,2845.5
123,2845.53071025,85365.9213075,85365,2845.5,2846.04727675,85381.4183025,85381,2846.0333333333333,2848.0805965,85442.41789499999,85442,2848.0666666666666,1.5403949512692634,3,1,3,1,2.0,2.0,b'HB_22_LongA.png',2849.620991451269,85488.62974353807,85488,2849.6
124,2849.63634925,85489.0904775,85489,2849.633333333333,2850.18624625,85505.5873875,85505,2850.1666666666665,2852.21938225,85566.5814675,85566,2852.2,3.1243720706552267,1,1,7,2,1.0,3.0,b'NB_6_LongA.png',2855.343754320655,85660.31262961966,85660,2855.3333333333335
125,2855.3592875,85660.77862499999,85660,2855.3333333333335,2855.90916575,85677.27497249999,85677,2855.9,2857.94238025,85738.2714075,85738,2857.9333333333334,-0.22149381376220845,1,2,2,1,1.0,3.0,b'NB_27_ShortA.png',2857.720886436238,85731.62659308713,85731,2857.7
126,2857.736286,85732.08858,85732,2857.733333333333,2858.28613775,85748.5841325,85748,2858.266666666667,2860.31942175,85809.5826525,85809,2860.3,1.6820661550445948,2,1,6,2,1.0,2.0,b'SB_47_LongA.png',2862.0014879050445,85860.04463715134,85860,2862.0
127,2862.01677075,85860.5031225,85860,2862.0,2862.56666625,85876.99998749999,85876,2862.5333333333333,2864.60001075,85938.0003225,85938,2864.6,1.1870153003255837,1,2,7,2,2.0,3.0,b'NB_6_ShortA.png',2865.7870260503255,85973.61078150976,85973,2865.766666666667
128,2865.802221,85974.06663,85974,2865.8,2866.3354502499997,85990.06350749999,85990,2866.3333333333335,2868.368613,86051.05839,86051,2868.366666666667,0.20827444747556,2,2,2,1,1.0,3.0,b'SB_43_LongA.png',2868.5768874474757,86057.30662342427,86057,2868.5666666666666
129,2868.59229525,86057.7688575,86057,2868.5666666666666,2869.1421794999997,86074.26538499999,86074,2869.133333333333,2871.17536775,86135.2610325,86135,2871.1666666666665,1.312227760325186,2,2,4,1,1.0,1.0,b'SB_41_LongA.png',2872.4875955103253,86174.62786530975,86174,2872.4666666666667
130,2872.50302625,86175.0907875,86175,2872.5,2873.03613025,86191.0839075,86191,2873.0333333333333,2875.0693767499997,86252.0813025,86252,2875.0666666666666,0.3416031109227333,1,1,7,2,1.0,3.0,b'NB_7_ShortA.png',2875.4109798609225,86262.32939582768,86262,2875.4
131,2875.4263805,86262.791415,86262,2875.4,2875.909603,86277.28809,86277,2875.9,2877.9427745,86338.283235,86338,2877.9333333333334,-0.07396132912253961,2,2,3,1,1.0,2.0,b'SB_7_ShortA.png',2877.8688131708773,86336.06439512632,86336,2877.866666666667
132,2877.884407,86336.53221,86336,2877.866666666667,2878.38430775,86351.5292325,86351,2878.366666666667,2880.4175115,86412.525345,86412,2880.4,0.19947511842474341,1,1,2,1,2.0,3.0,b'NB_10_LongA.png',2880.6169866184246,86418.50959855274,86418,2880.6
133,2880.63244975,86418.9734925,86418,2880.6,2881.1990057499997,86435.97017249999,86435,2881.1666666666665,2883.2321242499997,86496.9637275,86496,2883.2,3.0829314189613797,1,1,2,1,2.0,3.0,b'NB_29_LongA.png',2886.315055668961,86589.45167006884,86589,2886.3
134,2886.3306135,86589.91840499999,86589,2886.3,2886.7971855,86603.915565,86603,2886.766666666667,2888.83032775,86664.9098325,86664,2888.8,1.2065983924549073,2,2,2,1,1.0,3.0,b'SB_30_ShortA.png',2890.036926142455,86701.10778427364,86701,2890.0333333333333
135,2890.05231875,86701.5695625,86701,2890.0333333333333,2890.53554525,86716.06635749999,86716,2890.5333333333333,2892.5687829999997,86777.06348999999,86777,2892.5666666666666,0.165617316350108,2,2,6,2,2.0,2.0,b'SB_12_ShortA.png',2892.73440031635,86782.03200949049,86782,2892.733333333333
136,2892.74971125,86782.4913375,86782,2892.733333333333,2893.24961875,86797.4885625,86797,2893.233333333333,2895.28284125,86858.48523749999,86858,2895.266666666667,1.6753747237089556,1,2,7,2,2.0,3.0,b'NB_28_LongA.png',2896.958215973709,86908.74647921126,86908,2896.9333333333334
137,2896.97356525,86909.20695749999,86909,2896.9666666666667,2897.45659975,86923.69799249999,86923,2897.4333333333334,2899.4899877499997,86984.6996325,86984,2899.4666666666667,3.0772041709860787,3,2,5,2,2.0,1.0,b'HB_53_LongA.png',2902.567191920986,87077.01575762958,87077,2902.5666666666666
138,2902.5825795,87077.477385,87077,2902.5666666666666,2903.09913475,87092.97404249999,87092,2903.0666666666666,2905.1322784999998,87153.96835499999,87153,2905.1,1.4552041691495106,2,1,7,2,1.0,3.0,b'SB_56_LongA.png',2906.5874826691493,87197.62448007448,87197,2906.5666666666666
139,2906.60293375,87198.0880125,87198,2906.6,2907.1526074999997,87214.57822499999,87214,2907.133333333333,2909.1860455,87275.581365,87275,2909.1666666666665,1.8671800183947198,3,2,4,1,1.0,1.0,b'HB_60_ShortA.png',2911.053225518395,87331.59676555185,87331,2911.0333333333333
140,2911.06871825,87332.06154750001,87332,2911.0666666666666,2911.6019392499998,87348.05817749999,87348,2911.6,2913.6352457499997,87409.05737249998,87409,2913.633333333333,2.808541141479509,1,1,6,2,1.0,2.0,b'NB_4_ShortA.png',2916.4437868914792,87493.31360674437,87493,2916.4333333333334
141,2916.4590924999998,87493.77277499999,87493,2916.4333333333334,2917.00898375,87510.2695125,87510,2917.0,2919.04215175,87571.2645525,87571,2919.0333333333333,4.481455163273495,3,1,4,1,2.0,1.0,b'HB_57_LongA.png',2923.5236069132734,87705.7082073982,87705,2923.5
142,2923.53918975,87706.1756925,87706,2923.5333333333333,2924.1057345,87723.172035,87723,2924.1,2926.13883725,87784.1651175,87784,2926.133333333333,2.2307415717223193,1,2,4,1,1.0,1.0,b'NB_20_LongA.png',2928.3695788217224,87851.08736465167,87851,2928.366666666667
143,2928.38509425,87851.5528275,87851,2928.366666666667,2928.901672,87867.05016,87867,2928.9,2930.9348232499997,87928.0446975,87928,2930.9333333333334,1.694458906451473,2,2,2,1,1.0,3.0,b'SB_45_ShortA.png',2932.629282156451,87978.87846469354,87978,2932.6
144,2932.64477175,87979.3431525,87979,2932.633333333333,2933.16118725,87994.8356175,87994,2933.133333333333,2935.1945124999997,88055.835375,88055,2935.1666666666665,0.9897161737899296,2,1,5,2,1.0,1.0,b'SB_23_LongA.png',2936.1842286737897,88085.5268602137,88085,2936.1666666666665
145,2936.1996034999997,88085.988105,88085,2936.1666666666665,2936.76616525,88102.9849575,88102,2936.733333333333,2938.79932775,88163.9798325,88163,2938.766666666667,0.7202103992167395,3,1,6,2,1.0,2.0,b'HB_50_LongA.png',2939.5195381492167,88185.5861444765,88185,2939.5
146,2939.53490325,88186.04709749999,88186,2939.5333333333333,2940.0011729999997,88200.03519,88200,2940.0,2942.0347659999998,88261.04298,88261,2942.0333333333333,2.5728675026621204,3,1,5,2,1.0,1.0,b'HB_1_ShortA.png',2944.607633502662,88338.22900507986,88338,2944.6
147,2944.6229384999997,88338.688155,88338,2944.6,2945.1061864999997,88353.18559499999,88353,2945.1,2947.1393295,88414.17988499999,88414,2947.133333333333,4.000265881535597,3,1,5,2,1.0,1.0,b'HB_28_LongA.png',2951.1395953815354,88534.18786144606,88534,2951.133333333333
148,2951.155076,88534.65228,88534,2951.133333333333,2951.70497275,88551.1491825,88551,2951.7,2953.73809975,88612.1429925,88612,2953.733333333333,3.1392218654218595,1,2,7,2,2.0,3.0,b'NB_8_ShortA.png',2956.877321615422,88706.31964846265,88706,2956.866666666667
149,2956.8928877499998,88706.78663249999,88706,2956.866666666667,2957.459446,88723.78338,88723,2957.4333333333334,2959.49265375,88784.7796125,88784,2959.4666666666667,-2.2423852320353035,1,2,3,1,1.0,2.0,b'NB_15_ShortA.png',2957.2502685179647,88717.50805553894,88717,2957.233333333333
150,2957.2655837499997,88717.96751249999,88717,2957.233333333333,2957.732129,88731.96387,88731,2957.7,2959.7652625,88792.95787500001,88792,2959.733333333333,0.6504853749647737,3,2,5,2,2.0,1.0,b'HB_42_LongA.png',2960.415747874965,88812.47243624895,88812,2960.4
151,2960.43116225,88812.9348675,88812,2960.4,2960.9310702499997,88827.93210749999,88827,2960.9,2962.96422875,88888.9268625,88888,2962.9333333333334,1.9895903527794871,3,1,4,1,2.0,1.0,b'HB_43_ShortA.png',2964.9538191027796,88948.61457308338,88948,2964.9333333333334
152,2964.96933775,88949.08013249999,88949,2964.9666666666667,2965.4859002499998,88964.57700749999,88964,2965.4666666666667,2967.51904725,89025.5714175,89025,2967.5,-0.16072830907069147,1,2,5,2,2.0,1.0,b'NB_22_ShortA.png',2967.358318940929,89020.74956822788,89020,2967.3333333333335
153,2967.37369575,89021.2108725,89021,2967.366666666667,2967.856919,89035.70757,89035,2967.8333333333335,2969.8901082499997,89096.70324749999,89096,2969.866666666667,0.06020204987726174,3,2,4,1,1.0,1.0,b'HB_40_ShortA.png',2969.950310299877,89098.5093089963,89098,2969.9333333333334
154,2969.9657924999997,89098.97377499999,89098,2969.9333333333334,2970.465703,89113.97108999999,89113,2970.4333333333334,2972.4988685,89174.966055,89174,2972.4666666666667,1.2722982158593368,1,2,4,1,1.0,1.0,b'NB_27_LongA.png',2973.771166715859,89213.13500147578,89213,2973.766666666667
155,2973.7867029999998,89213.60109,89213,2973.766666666667,2974.25304325,89227.5912975,89227,2974.233333333333,2976.286423,89288.59269,89288,2976.266666666667,2.148385545646306,1,2,7,2,2.0,3.0,b'NB_25_ShortA.png',2978.4348085456463,89353.0442563694,89353,2978.4333333333334
156,2978.450297,89353.50890999999,89353,2978.4333333333334,2978.93353675,89368.00610249999,89368,2978.9333333333334,2980.9668484999997,89429.00545499999,89429,2980.9666666666667,3.4976158298377413,1,2,3,1,1.0,2.0,b'NB_23_ShortA.png',2984.4644643298375,89533.93392989512,89533,2984.4333333333334
157,2984.4798865,89534.396595,89534,2984.4666666666667,2984.97978625,89549.3935875,89549,2984.9666666666667,2987.01291575,89610.3874725,89610,2987.0,0.4839516382198781,1,1,2,1,2.0,3.0,b'NB_26_LongA.png',2987.49686738822,89624.9060216466,89624,2987.4666666666667
158,2987.5124754999997,89625.37426499999,89625,2987.5,2988.06234775,89641.8704325,89641,2988.0333333333333,2990.095571,89702.86713,89702,2990.0666666666666,0.542396506323712,1,2,5,2,2.0,1.0,b'NB_5_LongA.png',2990.6379675063235,89719.13902518971,89719,2990.633333333333
159,2990.6533415,89719.600245,89719,2990.633333333333,2991.16989575,89735.0968725,89735,2991.1666666666665,2993.20307525,89796.0922575,89796,2993.2,3.333251558651682,2,2,6,2,2.0,2.0,b'SB_19_ShortA.png',2996.5363268086517,89896.08980425955,89896,2996.5333333333333
160,2996.55168675,89896.5506025,89896,2996.5333333333333,2997.1015915,89913.04774499999,89913,2997.1,2999.13477225,89974.0431675,89974,2999.133333333333,3.041060207557166,2,2,2,1,1.0,3.0,b'SB_5_LongA.png',3002.175832457557,90065.27497372671,90065,3002.1666666666665
161,3002.1912159999997,90065.73647999999,90065,3002.1666666666665,3002.7577752499997,90082.73325749999,90082,3002.733333333333,3004.7909385,90143.72815499999,90143,3004.766666666667,1.0813879042107146,1,1,4,1,2.0,1.0,b'NB_9_LongA.png',3005.8723264042105,90176.16979212631,90176,3005.866666666667
162,3005.8881227499996,90176.64368249998,90176,3005.866666666667,3006.3546815,90190.640445,90190,3006.3333333333335,3008.3878445,90251.635335,90251,3008.366666666667,2.733753451349912,1,2,3,1,1.0,2.0,b'NB_19_ShortA.png',3011.12159795135,90333.6479385405,90333,3011.1
163,3011.13711225,90334.1133675,90334,3011.133333333333,3011.6536665,90349.60999499999,90349,3011.633333333333,3013.68682725,90410.6048175,90410,3013.6666666666665,0.5325255436764564,3,2,5,2,2.0,1.0,b'HB_33_ShortA.png',3014.2193527936765,90426.5805838103,90426,3014.2
164,3014.234897,90427.04690999999,90427,3014.233333333333,3014.8014494999998,90444.04348499999,90444,3014.8,3016.8346147499997,90505.0384425,90505,3016.8333333333335,-0.32702287132269703,3,2,5,2,2.0,1.0,b'HB_20_LongA.png',3016.507591878677,90495.22775636031,90495,3016.5
165,3016.52317025,90495.6951075,90495,3016.5,3017.08969325,90512.69079749999,90512,3017.0666666666666,3019.1228364999997,90573.685095,90573,3019.1,3.0908709358191118,2,1,7,2,1.0,3.0,b'SB_26_LongA.png',3022.213707435819,90666.41122307457,90666,3022.2
166,3022.229317,90666.87951,90666,3022.2,3022.7625317499997,90682.87595249999,90682,3022.733333333333,3024.7957939999997,90743.87382,90743,3024.766666666667,2.1798039998102468,2,1,6,2,1.0,2.0,b'SB_50_ShortA.png',3026.97559799981,90809.2679399943,90809,3026.9666666666667
167,3026.990988,90809.72964,90809,3026.9666666666667,3027.5575325,90826.725975,90826,3027.5333333333333,3029.59073675,90887.7221025,90887,3029.5666666666666,0.5264549813000485,3,2,5,2,2.0,1.0,b'HB_45_LongA.png',3030.1171917313,90903.515751939,90903,3030.1
168,3030.1327282499997,90903.98184749999,90903,3030.1,3030.632635,90918.97905,90918,3030.6,3032.665822,90979.97465999999,90979,3032.633333333333,1.7413895878999028,1,1,2,1,2.0,3.0,b'NB_24_ShortA.png',3034.4072115879,91032.21634763699,91032,3034.4
169,3034.4226694999998,91032.680085,91032,3034.4,3034.9225785,91047.67735499999,91047,3034.9,3036.9557385,91108.672155,91108,3036.9333333333334,2.6951798865920864,3,1,5,2,1.0,1.0,b'HB_51_LongA.png',3039.650918386592,91189.52755159776,91189,3039.633333333333
170,3039.66640325,91189.9920975,91189,3039.633333333333,3040.1662945,91204.988835,91204,3040.133333333333,3042.1994624999998,91265.98387499999,91265,3042.1666666666665,1.6831001348618884,3,1,3,1,2.0,2.0,b'HB_37_ShortA.png',3043.8825626348616,91316.47687904585,91316,3043.866666666667
171,3043.89802475,91316.9407425,91316,3043.866666666667,3044.431264,91332.93792,91332,3044.4,3046.4643674999998,91393.931025,91393,3046.4333333333334,2.3892873594304547,2,2,7,2,2.0,3.0,b'SB_20_LongA.png',3048.85365485943,91465.60964578291,91465,3048.8333333333335
172,3048.86925725,91466.0777175,91466,3048.866666666667,3049.41910925,91482.5732775,91482,3049.4,3051.45229475,91543.5688425,91543,3051.4333333333334,3.0538781373470556,3,2,4,1,1.0,1.0,b'HB_54_ShortA.png',3054.506172887347,91635.18518662041,91635,3054.5
173,3054.5216575,91635.649725,91635,3054.5,3055.104883,91653.14649,91653,3055.1,3057.13800425,91714.1401275,91714,3057.133333333333,0.7985781072347891,2,2,4,1,1.0,1.0,b'SB_9_LongA.png',3057.936582357235,91738.09747071704,91738,3057.9333333333334
174,3057.95208925,91738.5626775,91738,3057.9333333333334,3058.4519824999998,91753.55947499999,91753,3058.4333333333334,3060.485253,91814.55759,91814,3060.4666666666667,1.6718888161703944,2,2,5,2,2.0,1.0,b'SB_52_LongA.png',3062.15714181617,91864.71425448511,91864,3062.133333333333
175,3062.172498,91865.17494,91865,3062.1666666666665,3062.672434,91880.17302,91880,3062.6666666666665,3064.70555375,91941.1666125,91941,3064.7,3.4593042797932867,1,1,7,2,1.0,3.0,b'NB_16_ShortA.png',3068.1648580297933,92044.9457408938,92044,3068.133333333333
176,3068.18040025,92045.4120075,92045,3068.1666666666665,3068.68030375,92060.4091125,92060,3068.6666666666665,3070.7134967499996,92121.40490249998,92121,3070.7,0.26095393917057663,1,1,2,1,2.0,3.0,b'NB_11_ShortA.png',3070.97445068917,92129.2335206751,92129,3070.9666666666667
177,3070.98995075,92129.6985225,92129,3070.9666666666667,3071.5062215,92145.186645,92145,3071.5,3073.5397505,92206.192515,92206,3073.5333333333333,2.254941702063661,1,1,5,2,1.0,1.0,b'NB_4_LongA.png',3075.7946922020637,92273.84076606191,92273,3075.766666666667
178,3075.81015425,92274.3046275,92274,3075.8,3076.359993,92290.79979,92290,3076.3333333333335,3078.393412,92351.80236,92351,3078.366666666667,2.2145834627444856,1,1,3,1,2.0,2.0,b'NB_14_LongA.png',3080.6079954627444,92418.23986388234,92418,3080.6
179,3080.63759275,92419.1277825,92419,3080.633333333333,3081.2150775,92436.452325,92436,3081.2,3083.27316425,92498.1949275,92498,3083.266666666667,0.28373601083876565,2,2,2,1,1.0,3.0,b'SB_30_LongA.png',3083.5569002608386,92506.70700782516,92506,3083.5333333333333
180,3083.62798825,92508.83964749999,92508,3083.6,3084.15397575,92524.6192725,92524,3084.133333333333,3086.1984125,92585.952375,92585,3086.1666666666665,1.7914561923244037,2,1,5,2,1.0,1.0,b'SB_30_ShortA.png',3087.9898686923243,92639.69606076973,92639,3087.9666666666667
