trial_num,fixcross_time,fixation_HZ,fixation_bin,fixation_regarded,start_time,Fstart_HZ,Fstart_bin,Fstart_regarded,stop_time,Fstop_HZ,Fstop_bin,Fstop_regarded,RT,boundary_type,key,resp_value,leftright,accuracy,confidence,frameName,response_time,response_HZ,response_bin,response_regarded
1,2141.921689,64257.650669999995,64257,2141.9,2142.503641,64275.109229999995,64275,2142.5,2144.5609974999998,64336.82992499999,64336,2144.5333333333333,-0.12729154967382783,2,1,2,1,2.0,3.0,b'SB_54_LongA.png',2144.433705950326,64333.011178509776,64333,2144.4333333333334
2,2144.4834375,64334.503125,64334,2144.4666666666667,2145.1255905,64353.767714999994,64353,2145.1,2147.1573089999997,64414.719269999994,64414,2147.133333333333,1.172686965783214,2,1,2,1,2.0,3.0,b'SB_40_LongA.png',2148.329995965783,64449.89987897349,64449,2148.3
3,2148.37162675,64451.1488025,64451,2148.366666666667,2148.9738012499997,64469.214037499994,64469,2148.9666666666667,2151.00525525,64530.15765750001,64530,2151.0,1.5386773625978094,3,1,7,2,1.0,3.0,b'HB_38_ShortA.png',2152.543932612598,64576.317978377934,64576,2152.5333333333333
4,2152.5560929999997,64576.68278999999,64576,2152.5333333333333,2153.1581145,64594.743435,64594,2153.133333333333,2155.1895765,64655.687294999996,64655,2155.1666666666665,0.0,2,2,1,1,1.0,0.0,b'SB_2_ShortA.png',2155.1895765,64655.687294999996,64655,2155.1666666666665
5,2156.05140525,64681.54215749999,64681,2156.0333333333333,2156.6534632499997,64699.60389749999,64699,2156.633333333333,2158.6844417499997,64760.53325249999,64760,2158.6666666666665,0.0,3,1,1,1,2.0,0.0,b'HB_60_ShortA.png',2158.6844417499997,64760.53325249999,64760,2158.6666666666665
6,2157.674211,64730.22633,64730,2157.6666666666665,2158.3163624999997,64749.49087499999,64749,2158.3,2160.34773975,64810.432192500004,64810,2160.3333333333335,1.1827405587573594,2,1,2,1,2.0,3.0,b'SB_18_LongA.png',2161.5304803087574,64845.914409262725,64845,2161.5
7,2161.55186875,64846.55606249999,64846,2161.5333333333333,2162.133793,64864.01379,64864,2162.133333333333,2164.1652135,64924.956405,64924,2164.133333333333,-0.5533577486821741,3,2,7,2,2.0,3.0,b'HB_2_LongA.png',2163.6118557513178,64908.35567253953,64908,2163.6
8,2163.64521175,64909.35635249999,64909,2163.633333333333,2164.227433,64926.82299,64926,2164.2,2166.25877975,64987.7633925,64987,2166.233333333333,4.081686921053915,3,1,7,2,1.0,3.0,b'HB_56_LongA.png',2170.340466671054,65110.214000131615,65110,2170.3333333333335
9,2170.36231575,65110.8694725,65110,2170.3333333333335,2171.004478,65130.13434,65130,2171.0,2173.03581525,65191.07445749999,65191,2173.0333333333333,-0.9918880134719075,3,2,2,1,1.0,3.0,b'HB_14_ShortA.png',2172.043927236528,65161.317817095834,65161,2172.0333333333333
10,2172.05297625,65161.5892875,65161,2172.0333333333333,2172.69514825,65180.854447499994,65180,2172.6666666666665,2174.7265365,65241.796095,65241,2174.7,2.9503762350905163,2,1,2,1,2.0,3.0,b'SB_47_LongA.png',2177.6769127350904,65330.30738205271,65330,2177.6666666666665
11,2177.685975,65330.579249999995,65330,2177.6666666666665,2178.2677719999997,65348.03315999999,65348,2178.266666666667,2180.2987049999997,65408.96114999999,65408,2180.266666666667,1.4661024716479005,1,2,7,2,2.0,3.0,b'NB_30_ShortA.png',2181.7648074716476,65452.944224149425,65452,2181.733333333333
12,2181.783691,65453.51073,65453,2181.766666666667,2182.4258635,65472.775905,65472,2182.4,2184.45724725,65533.7174175,65533,2184.4333333333334,3.9790252581442473,3,2,7,2,2.0,3.0,b'HB_21_ShortA.png',2188.436272508144,65653.08817524432,65653,2188.4333333333334
13,2188.4432245,65653.296735,65653,2188.4333333333334,2189.0653147499997,65671.9594425,65671,2189.0333333333333,2191.0960635,65732.881905,65732,2191.0666666666666,1.1991391072515398,3,1,2,1,2.0,3.0,b'HB_22_ShortA.png',2192.2952026072517,65768.85607821755,65768,2192.266666666667
14,2192.3125649999997,65769.37694999999,65769,2192.3,2192.9745762499997,65789.23728749999,65789,2192.9666666666667,2195.0055319999997,65850.16595999998,65850,2195.0,1.3058665471398854,3,1,7,2,1.0,3.0,b'HB_55_LongA.png',2196.3113985471396,65889.34195641418,65889,2196.3
15,2196.33017975,65889.90539249999,65889,2196.3,2196.8920805,65906.76241499999,65906,2196.866666666667,2198.923391,65967.70173,65967,2198.9,1.1160226543361205,3,2,2,1,1.0,3.0,b'HB_19_LongA.png',2200.039413654336,66001.18240963008,66001,2200.0333333333333
16,2200.063444,66001.90332,66001,2200.0333333333333,2200.68553075,66020.5659225,66020,2200.6666666666665,2202.716336,66081.49008,66081,2202.7,2.549572274525417,2,2,7,2,2.0,3.0,b'SB_38_LongA.png',2205.2659082745254,66157.97724823577,66157,2205.233333333333
17,2205.2720375,66158.161125,66158,2205.266666666667,2205.9141795,66177.425385,66177,2205.9,2207.94541675,66238.3625025,66238,2207.9333333333334,0.0,3,1,1,1,2.0,0.0,b'HB_54_LongA.png',2207.94541675,66238.3625025,66238,2207.9333333333334
18,2208.23322225,66246.9966675,66246,2208.2,2208.83525875,66265.0577625,66265,2208.8333333333335,2210.8660824999997,66325.982475,66325,2210.8333333333335,2.741667905211216,3,1,7,2,1.0,3.0,b'HB_18_ShortA.png',2213.607750405211,66408.23251215633,66408,2213.6
19,2213.630812,66408.92435999999,66408,2213.6,2214.23305675,66426.99170249999,66426,2214.2,2216.264424,66487.93272,66487,2216.233333333333,1.1576326414215146,3,2,7,2,2.0,3.0,b'HB_11_ShortA.png',2217.4220566414215,66522.66169924264,66522,2217.4
20,2217.443379,66523.30137,66523,2217.4333333333334,2218.0854087499997,66542.5622625,66542,2218.0666666666666,2220.1168665,66603.505995,66603,2220.1,2.255661100742145,3,1,7,2,1.0,3.0,b'HB_46_ShortA.png',2222.372527600742,66671.17582802227,66671,2222.366666666667
21,2222.3897615,66671.692845,66671,2222.366666666667,2223.011705,66690.35115,66690,2223.0,2225.0432225,66751.296675,66751,2225.0333333333333,3.3246056857205986,2,1,2,1,2.0,3.0,b'SB_50_ShortA.png',2228.3678281857206,66851.03484557162,66851,2228.366666666667
22,2228.37469725,66851.24091749999,66851,2228.366666666667,2228.99682325,66869.9046975,66869,2228.9666666666667,2231.0280975,66930.842925,66930,2231.0,2.0445597594007268,1,2,7,2,2.0,3.0,b'NB_24_LongA.png',2233.072657259401,66992.17971778203,66992,2233.0666666666666
23,2233.0813064999998,66992.439195,66992,2233.0666666666666,2233.72360425,67011.7081275,67011,2233.7,2235.75481425,67072.6444275,67072,2235.733333333333,3.135305493407941,3,1,7,2,1.0,3.0,b'HB_20_ShortA.png',2238.890119743408,67166.70359230223,67166,2238.866666666667
24,2238.9116265,67167.348795,67167,2238.9,2239.55379975,67186.6139925,67186,2239.5333333333333,2241.585219,67247.55657,67247,2241.5666666666666,0.9403433270963433,2,2,7,2,2.0,3.0,b'SB_44_LongA.png',2242.5255623270964,67275.7668698129,67275,2242.5
25,2242.5501145,67276.50343499999,67276,2242.5333333333333,2243.1120025,67293.360075,67293,2243.1,2245.14277175,67354.28315250001,67354,2245.133333333333,-0.4399173252932087,2,2,7,2,2.0,3.0,b'SB_57_LongA.png',2244.702854424707,67341.0856327412,67341,2244.7
26,2244.7231075,67341.693225,67341,2244.7,2245.30509,67359.15269999999,67359,2245.3,2247.3364575,67420.093725,67420,2247.3333333333335,0.18517552109187818,1,1,2,1,2.0,3.0,b'NB_16_LongA.png',2247.521633021092,67425.64899063276,67425,2247.5
27,2247.539041,67426.17123,67426,2247.5333333333333,2248.1210735,67443.632205,67443,2248.1,2250.15247375,67504.5742125,67504,2250.133333333333,1.3051730687438976,1,2,7,2,2.0,3.0,b'NB_28_ShortA.png',2251.457646818744,67543.72940456231,67543,2251.4333333333334
28,2251.47106725,67544.1320175,67544,2251.4666666666667,2252.0730652499997,67562.19195749999,67562,2252.0666666666666,2254.1043685,67623.131055,67623,2254.1,2.650749727010407,2,2,6,2,2.0,2.0,b'SB_34_ShortA.png',2256.7551182270104,67702.65354681031,67702,2256.733333333333
29,2256.77421025,67703.22630750001,67703,2256.766666666667,2257.35620375,67720.6861125,67720,2257.3333333333335,2259.3875365,67781.626095,67781,2259.366666666667,1.8326481330077513,2,1,3,1,2.0,2.0,b'SB_3_LongA.png',2261.2201846330076,67836.60553899023,67836,2261.2
30,2261.2332825,67836.998475,67836,2261.2,2261.87544575,67856.26337249999,67856,2261.866666666667,2263.9067919999998,67917.20375999999,67917,2263.9,1.7147428938624216,1,1,3,1,2.0,2.0,b'NB_23_LongA.png',2265.621534893862,67968.64604681586,67968,2265.6
31,2265.635789,67969.07367,67969,2265.633333333333,2266.27795575,67988.33867249999,67988,2266.266666666667,2268.30866075,68049.2598225,68049,2268.3,4.243706502031273,1,2,7,2,2.0,3.0,b'NB_6_ShortA.png',2272.552367252031,68176.57101756094,68176,2272.5333333333333
32,2272.5612042499997,68176.83612749999,68176,2272.5333333333333,2273.16321375,68194.8964125,68194,2273.133333333333,2275.19460125,68255.8380375,68255,2275.1666666666665,2.3553968533415173,1,1,2,1,2.0,3.0,b'NB_2_ShortA.png',2277.5499981033413,68326.49994310024,68326,2277.5333333333333
33,2277.55587225,68326.6761675,68326,2277.5333333333333,2278.1179695,68343.539085,68343,2278.1,2280.1493502499998,68404.48050749999,68404,2280.133333333333,2.192839532795915,3,2,2,1,1.0,3.0,b'HB_50_LongA.png',2282.3421897827957,68470.26569348387,68470,2282.3333333333335
34,2282.35995375,68470.7986125,68470,2282.3333333333335,2282.96198825,68488.85964750001,68488,2282.9333333333334,2284.99275575,68549.7826725,68549,2284.9666666666667,1.5363634440873284,2,2,7,2,2.0,3.0,b'SB_9_LongA.png',2286.5291191940873,68595.87357582262,68595,2286.5
35,2286.5369105,68596.107315,68596,2286.5333333333333,2287.13891175,68614.1673525,68614,2287.133333333333,2289.17030975,68675.1092925,68675,2289.1666666666665,0.08061592303783982,2,1,2,1,2.0,3.0,b'SB_33_LongA.png',2289.2509256730377,68677.52777019113,68677,2289.233333333333
36,2289.25689975,68677.7069925,68677,2289.233333333333,2289.85892375,68695.7677125,68695,2289.8333333333335,2291.8896072499997,68756.68821749999,68756,2291.866666666667,1.627611325482576,3,1,6,2,1.0,2.0,b'HB_45_LongA.png',2293.5172185754823,68805.51655726446,68805,2293.5
37,2293.52850775,68805.85523249999,68805,2293.5,2294.13080175,68823.9240525,68823,2294.1,2296.16235375,68884.8706125,68884,2296.133333333333,0.7086784920393256,1,2,7,2,2.0,3.0,b'NB_24_ShortA.png',2296.8710322420393,68906.13096726118,68906,2296.866666666667
38,2296.8837062499997,68906.51118749999,68906,2296.866666666667,2297.4454674999997,68923.36402499999,68923,2297.4333333333334,2299.47648225,68984.2944675,68984,2299.4666666666667,1.4330861603230005,2,2,6,2,2.0,2.0,b'SB_20_LongA.png',2300.909568410323,69027.2870523097,69027,2300.9
39,2300.93106375,69027.93191249999,69027,2300.9,2301.5531714999997,69046.595145,69046,2301.5333333333333,2303.58451075,69107.5353225,69107,2303.5666666666666,1.2067457930643286,1,1,3,1,2.0,2.0,b'NB_9_ShortA.png',2304.7912565430643,69143.73769629192,69143,2304.766666666667
40,2304.802183,69144.06549,69144,2304.8,2305.444564,69163.33692,69163,2305.4333333333334,2307.47578175,69224.2734525,69224,2307.4666666666667,0.47869397665635915,2,1,3,1,2.0,2.0,b'SB_37_LongA.png',2307.9544757266563,69238.63427179969,69238,2307.9333333333334
41,2307.96898475,69239.0695425,69239,2307.9666666666667,2308.53087475,69255.92624249999,69255,2308.5,2310.5622155,69316.866465,69316,2310.5333333333333,0.22043941384617938,1,2,6,2,2.0,2.0,b'NB_1_LongA.png',2310.7826549138463,69323.47964741538,69323,2310.766666666667
42,2310.804644,69324.13931999999,69324,2310.8,2311.426759,69342.80277,69342,2311.4,2313.4581095,69403.74328499999,69403,2313.4333333333334,2.8643138418301533,1,1,3,1,2.0,2.0,b'NB_22_ShortA.png',2316.32242334183,69489.6727002549,69489,2316.3
43,2316.34546925,69490.3640775,69490,2316.3333333333335,2316.94746425,69508.4239275,69508,2316.9333333333334,2318.9788635,69569.365905,69569,2318.9666666666667,1.0899820391423418,1,1,3,1,2.0,2.0,b'NB_3_ShortA.png',2320.0688455391423,69602.06536617427,69602,2320.0666666666666
44,2320.0924487499997,69602.77346249999,69602,2320.0666666666666,2320.6747805,69620.243415,69620,2320.6666666666665,2322.7060472499998,69681.18141749999,69681,2322.7,1.1637671960197622,2,2,6,2,2.0,2.0,b'SB_32_ShortA.png',2323.8698144460195,69716.09443338058,69716,2323.866666666667
45,2323.88979475,69716.6938425,69716,2323.866666666667,2324.4717622499998,69734.15286749999,69734,2324.4666666666667,2326.5025044999998,69795.07513499999,69795,2326.5,0.6064062057739648,2,2,6,2,2.0,2.0,b'SB_60_ShortA.png',2327.1089107057737,69813.26732117322,69813,2327.1
46,2327.1258475,69813.775425,69813,2327.1,2327.6877525,69830.632575,69830,2327.6666666666665,2329.7191159999998,69891.57347999999,69891,2329.7,3.1619411963292805,1,1,3,1,2.0,2.0,b'NB_25_LongA.png',2332.881057196329,69986.43171588988,69986,2332.866666666667
47,2332.88889225,69986.6667675,69986,2332.866666666667,2333.4507869999998,70003.52360999999,70003,2333.4333333333334,2335.4820812499997,70064.4624375,70064,2335.4666666666667,1.211019810216385,1,1,3,1,2.0,2.0,b'NB_11_ShortA.png',2336.693101060216,70100.79303180649,70100,2336.6666666666665
48,2336.7147677499997,70101.44303249998,70101,2336.7,2337.29672075,70118.90162250001,70118,2337.266666666667,2339.32802825,70179.8408475,70179,2339.3,3.651637913510058,3,1,3,1,2.0,2.0,b'HB_48_ShortA.png',2342.97966616351,70289.3899849053,70289,2342.9666666666667
49,2342.998567,70289.95701,70289,2342.9666666666667,2343.60058325,70308.0174975,70308,2343.6,2345.6319765,70368.959295,70368,2345.6,1.432859593827743,1,2,6,2,2.0,2.0,b'NB_7_ShortA.png',2347.0648360938276,70411.94508281483,70411,2347.0333333333333
50,2347.07283625,70412.1850875,70412,2347.0666666666666,2347.6347345,70429.04203499999,70429,2347.633333333333,2349.6658555,70489.97566499999,70489,2349.633333333333,0.8241935130936326,2,1,3,1,2.0,2.0,b'SB_10_ShortA.png',2350.4900490130935,70514.7014703928,70514,2350.4666666666667
51,2350.51105925,70515.3317775,70515,2350.5,2351.09285975,70532.7857925,70532,2351.0666666666666,2353.12440625,70593.7321875,70593,2353.1,0.25828895682207076,1,1,3,1,2.0,2.0,b'NB_13_LongA.png',2353.382695206822,70601.48085620467,70601,2353.366666666667
52,2353.4064835,70602.19450499999,70602,2353.4,2353.9683314999997,70619.04994499999,70619,2353.9666666666667,2355.99909325,70679.9727975,70679,2355.9666666666667,2.990736003896018,2,1,3,1,2.0,2.0,b'SB_28_ShortA.png',2358.989829253896,70769.69487761689,70769,2358.9666666666667
53,2359.01181,70770.3543,70770,2359.0,2359.65395175,70789.6185525,70789,2359.633333333333,2361.68479,70850.5437,70850,2361.6666666666665,-0.11351464210747508,3,2,3,1,1.0,2.0,b'HB_9_LongA.png',2361.5712753578923,70847.13826073677,70847,2361.5666666666666
54,2361.5924965,70847.774895,70847,2361.5666666666666,2362.2346315,70867.038945,70867,2362.233333333333,2364.2652795,70927.95838499999,70927,2364.233333333333,3.3385384023349616,2,2,6,2,2.0,2.0,b'SB_55_LongA.png',2367.603817902335,71028.11453707004,71028,2367.6
55,2367.621689,71028.65067,71028,2367.6,2368.163521,71044.90563,71044,2368.133333333333,2370.1948565,71105.845695,71105,2370.1666666666665,0.1910708287723537,3,1,3,1,2.0,2.0,b'HB_40_ShortA.png',2370.385927328772,71111.57781986316,71111,2370.366666666667
56,2370.39167625,71111.75028749999,71111,2370.366666666667,2370.9939179999997,71129.81753999999,71129,2370.9666666666667,2373.02470025,71190.74100750001,71190,2373.0,0.8190244693032582,2,1,3,1,2.0,2.0,b'SB_6_ShortA.png',2373.8437247193033,71215.31174157909,71215,2373.8333333333335
57,2373.85622925,71215.6868775,71215,2373.8333333333335,2374.47832425,71234.3497275,71234,2374.4666666666667,2376.5091915,71295.27574499999,71295,2376.5,1.3958736838139885,3,1,3,1,2.0,2.0,b'HB_16_ShortA.png',2377.905065183814,71337.15195551442,71337,2377.9
58,2377.918803,71337.56409,71337,2377.9,2378.520835,71355.62504999999,71355,2378.5,2380.5516992499997,71416.5509775,71416,2380.5333333333333,-1.131306908253464,3,2,3,1,1.0,2.0,b'HB_17_LongA.png',2379.4203923417463,71382.61177025239,71382,2379.4
59,2379.42948975,71382.8846925,71382,2379.4,2380.07183025,71402.1549075,71402,2380.0666666666666,2382.1031665,71463.094995,71463,2382.1,2.575797635829076,3,1,3,1,2.0,2.0,b'HB_29_ShortA.png',2384.678964135829,71540.36892407488,71540,2384.6666666666665
60,2384.6882995,71540.648985,71540,2384.6666666666665,2385.3304747499997,71559.91424249999,71559,2385.3,2387.36180625,71620.8541875,71620,2387.3333333333335,0.7896099102144944,3,2,6,2,2.0,2.0,b'HB_59_ShortA.png',2388.1514161602145,71644.54248480643,71644,2388.133333333333
61,2388.17545325,71645.2635975,71645,2388.1666666666665,2388.7371789999997,71662.11536999998,71662,2388.733333333333,2390.7680495,71723.041485,71723,2390.766666666667,0.591550777957309,1,1,2,1,2.0,3.0,b'NB_10_ShortA.png',2391.3596002779573,71740.78800833871,71740,2391.3333333333335
62,2391.38346375,71741.5039125,71741,2391.366666666667,2392.00536575,71760.16097249999,71760,2392.0,2394.0367497499997,71821.1024925,71821,2394.0333333333333,2.8880483348948474,1,1,3,1,2.0,2.0,b'NB_17_LongA.png',2396.9247980848945,71907.74394254683,71907,2396.9
63,2396.9401602499997,71908.20480749999,71908,2396.9333333333334,2397.50196725,71925.0590175,71925,2397.5,2399.5334052499998,71986.0021575,71986,2399.5333333333333,2.7881564116323716,1,2,7,2,2.0,3.0,b'NB_26_LongA.png',2402.321561661632,72069.64684984897,72069,2402.3
64,2402.3411592499997,72070.2347775,72070,2402.3333333333335,2402.963255,72088.89765,72088,2402.9333333333334,2404.99461475,72149.8384425,72149,2404.9666666666667,1.471977013439755,1,1,2,1,2.0,3.0,b'NB_5_ShortA.png',2406.4665917634397,72193.99775290319,72193,2406.4333333333334
65,2406.4789124999998,72194.36737499999,72194,2406.4666666666667,2407.12105875,72213.6317625,72213,2407.1,2409.1524382499997,72274.57314749999,72274,2409.133333333333,2.9633739263263124,1,2,7,2,2.0,3.0,b'NB_21_LongA.png',2412.115812176326,72363.47436528977,72363,2412.1
66,2412.13813125,72364.14393749999,72364,2412.133333333333,2412.7401597499997,72382.2047925,72382,2412.733333333333,2414.7715412499997,72443.1462375,72443,2414.766666666667,1.8782577317979303,1,2,6,2,2.0,2.0,b'NB_15_ShortA.png',2416.6497989817976,72499.49396945394,72499,2416.633333333333
67,2416.65804975,72499.7414925,72499,2416.633333333333,2417.259964,72517.79892,72517,2417.233333333333,2419.2914605,72578.74381500001,72578,2419.266666666667,0.8285662072848936,2,2,6,2,2.0,2.0,b'SB_59_ShortA.png',2420.120026707285,72603.60080121855,72603,2420.1
68,2420.1286744999998,72603.860235,72603,2420.1,2420.7508709999997,72622.52613,72622,2420.733333333333,2422.78227575,72683.4682725,72683,2422.766666666667,-0.07190434596122941,1,2,6,2,2.0,2.0,b'NB_29_ShortA.png',2422.7103714040386,72681.31114212115,72681,2422.7
69,2422.7262225,72681.786675,72681,2422.7,2423.3685855,72701.057565,72701,2423.366666666667,2425.399961,72761.99883,72761,2425.366666666667,1.156530928103166,3,2,6,2,2.0,2.0,b'HB_28_ShortA.png',2426.5564919281032,72796.6947578431,72796,2426.5333333333333
70,2426.57409375,72797.2228125,72797,2426.5666666666666,2427.1962015,72815.88604499999,72815,2427.1666666666665,2429.22693825,72876.80814749999,72876,2429.2,0.8045357847950072,3,1,6,2,1.0,2.0,b'HB_41_LongA.png',2430.031474034795,72900.94422104384,72900,2430.0
71,2430.0503559999997,72901.51067999999,72901,2430.0333333333333,2430.6324425,72918.973275,72918,2430.6,2432.663191,72979.89573,72979,2432.633333333333,2.0526331280489103,2,2,6,2,2.0,2.0,b'SB_41_LongA.png',2434.715824128049,73041.47472384147,73041,2434.7
72,2434.7354259999997,73042.06278,73042,2434.733333333333,2435.3576077499997,73060.7282325,73060,2435.3333333333335,2437.3891369999997,73121.67410999999,73121,2437.366666666667,0.4507902858167654,1,1,3,1,2.0,2.0,b'NB_28_LongA.png',2437.8399272858164,73135.1978185745,73135,2437.8333333333335
73,2437.84482625,73135.3447875,73135,2437.8333333333335,2438.4871424999997,73154.61427499999,73154,2438.4666666666667,2440.51845525,73215.5536575,73215,2440.5,0.6301473932471708,1,2,6,2,2.0,2.0,b'NB_12_LongA.png',2441.148602643247,73234.45807929742,73234,2441.133333333333
74,2441.1542105,73234.626315,73234,2441.133333333333,2441.7765114999997,73253.29534499999,73253,2441.766666666667,2443.8078232499997,73314.2346975,73314,2443.8,4.695467316509166,3,2,6,2,2.0,2.0,b'HB_3_LongA.png',2448.503290566509,73455.09871699527,73455,2448.5
75,2448.5130517499997,73455.39155249999,73455,2448.5,2449.1350752499998,73474.05225749999,73474,2449.133333333333,2451.1664925,73534.994775,73534,2451.133333333333,2.1565914520979277,2,2,6,2,2.0,2.0,b'SB_48_LongA.png',2453.323083952098,73599.69251856294,73599,2453.3
76,2453.3324749999997,73599.97424999998,73599,2453.3,2453.95457925,73618.6373775,73618,2453.9333333333334,2455.985938,73679.57814,73679,2455.9666666666667,0.7506749137464794,3,2,3,1,1.0,2.0,b'HB_49_LongA.png',2456.7366129137463,73702.09838741239,73702,2456.733333333333
77,2456.7491385,73702.47415499999,73702,2456.733333333333,2457.33111125,73719.9333375,73719,2457.3,2459.3624545,73780.873635,73780,2459.3333333333335,1.1259767953706614,1,1,3,1,2.0,2.0,b'NB_18_LongA.png',2460.4884312953704,73814.65293886111,73814,2460.4666666666667
78,2460.5082334999997,73815.247005,73815,2460.5,2461.1103922499997,73833.3117675,73833,2461.1,2463.14159625,73894.2478875,73894,2463.133333333333,-0.22388253997269203,2,2,6,2,2.0,2.0,b'SB_11_LongA.png',2462.9177137100273,73887.53141130082,73887,2462.9
79,2462.9341544999997,73888.024635,73888,2462.9333333333334,2463.476231,73904.28693,73904,2463.4666666666667,2465.50754675,73965.2264025,73965,2465.5,1.8046957462975115,1,2,6,2,2.0,2.0,b'NB_2_LongA.png',2467.3122424962976,74019.36727488892,74019,2467.3
80,2467.32094375,74019.6283125,74019,2467.3,2467.88272525,74036.4817575,74036,2467.866666666667,2469.9142105,74097.426315,74097,2469.9,1.6505235522272415,3,1,3,1,2.0,2.0,b'HB_33_LongA.png',2471.5647340522273,74146.94202156682,74146,2471.5333333333333
81,2471.5879932499997,74147.63979749999,74147,2471.5666666666666,2472.16965125,74165.0895375,74165,2472.1666666666665,2474.201162,74226.03486,74226,2474.2,0.916335293713928,3,1,6,2,1.0,2.0,b'HB_39_LongA.png',2475.1174972937138,74253.52491881141,74253,2475.1
82,2475.13490275,74254.04708250001,74254,2475.133333333333,2475.7370822499997,74272.11246749999,74272,2475.733333333333,2477.7683535,74333.050605,74333,2477.766666666667,0.5757230336166685,2,1,3,1,2.0,2.0,b'SB_16_ShortA.png',2478.3440765336168,74350.3222960085,74350,2478.3333333333335
83,2478.357787,74350.73361,74350,2478.3333333333335,2478.919679,74367.59037,74367,2478.9,2480.95095,74428.5285,74428,2480.9333333333334,1.9221548349378281,3,1,6,2,1.0,2.0,b'HB_31_ShortA.png',2482.8731048349377,74486.19314504814,74486,2482.866666666667
84,2482.8943945,74486.831835,74486,2482.866666666667,2483.49643775,74504.8931325,74504,2483.4666666666667,2485.5272915,74565.818745,74565,2485.5,0.2123372489513713,2,2,6,2,2.0,2.0,b'SB_21_ShortA.png',2485.7396287489514,74572.18886246854,74572,2485.733333333333
85,2485.759501,74572.78503,74572,2485.733333333333,2486.3415689999997,74590.24707,74590,2486.3333333333335,2488.37299875,74651.18996250001,74651,2488.366666666667,1.7453490148109267,3,1,3,1,2.0,2.0,b'HB_36_ShortA.png',2490.118347764811,74703.55043294434,74703,2490.1
86,2490.1431829999997,74704.29548999999,74704,2490.133333333333,2490.765234,74722.95702,74722,2490.733333333333,2492.796023,74783.88068999999,74783,2492.766666666667,1.8176474255560606,2,2,3,1,1.0,2.0,b'SB_53_LongA.png',2494.613670425556,74838.41011276668,74838,2494.6
87,2494.62640525,74838.79215750001,74838,2494.6,2495.24849425,74857.4548275,74857,2495.233333333333,2497.2798804999998,74918.396415,74918,2497.266666666667,2.7968549389843247,3,2,6,2,2.0,2.0,b'HB_24_LongA.png',2500.076735438984,75002.30206316953,75002,2500.0666666666666
88,2500.0957937499998,75002.8738125,75002,2500.0666666666666,2500.6978207499997,75020.93462249999,75020,2500.6666666666665,2502.72919825,75081.8759475,75081,2502.7,2.6396966886604787,2,2,6,2,2.0,2.0,b'SB_7_ShortA.png',2505.3688949386606,75161.06684815981,75161,2505.366666666667
89,2505.39294375,75161.78831250001,75161,2505.366666666667,2506.0550249999997,75181.65074999999,75181,2506.0333333333333,2508.08651875,75242.59556249999,75242,2508.0666666666666,0.9794595648381801,2,1,6,2,1.0,2.0,b'SB_4_LongA.png',2509.065978314838,75271.97934944514,75271,2509.0333333333333
90,2509.0718162499998,75272.1544875,75272,2509.0666666666666,2509.65392225,75289.6176675,75289,2509.633333333333,2511.68525275,75350.5575825,75350,2511.6666666666665,1.7815741380218242,1,2,3,1,1.0,2.0,b'NB_15_LongA.png',2513.466826888022,75404.00480664066,75404,2513.4666666666667
91,2513.4829517499998,75404.4885525,75404,2513.4666666666667,2514.12539375,75423.7618125,75423,2514.1,2516.1567662499997,75484.70298749999,75484,2516.133333333333,0.7809068645947264,1,1,7,2,1.0,3.0,b'NB_27_ShortA.png',2516.9376731145944,75508.13019343783,75508,2516.9333333333334
92,2516.94598125,75508.3794375,75508,2516.9333333333334,2517.5680749999997,75527.04224999998,75527,2517.5666666666666,2519.59909325,75587.9727975,75587,2519.5666666666666,-0.1336043561095721,3,1,3,1,2.0,2.0,b'HB_32_LongA.png',2519.4654888938903,75583.96466681671,75583,2519.4333333333334
93,2519.4824477499997,75584.47343249999,75584,2519.4666666666667,2520.1043099999997,75603.12929999999,75603,2520.1,2522.13588675,75664.07660249999,75664,2522.133333333333,1.9375341419254255,1,2,6,2,2.0,2.0,b'NB_11_LongA.png',2524.0734208919253,75722.20262675776,75722,2524.0666666666666
94,2524.09706375,75722.9119125,75722,2524.0666666666666,2524.658918,75739.76754,75739,2524.633333333333,2526.69028175,75800.7084525,75800,2526.6666666666665,0.32557609195282566,1,1,6,2,1.0,2.0,b'NB_10_LongA.png',2527.0158578419528,75810.47573525859,75810,2527.0
95,2527.02656875,75810.7970625,75810,2527.0,2527.6288369999997,75828.86511,75828,2527.6,2529.6601865,75889.805595,75889,2529.633333333333,1.9393295378031326,1,2,6,2,2.0,2.0,b'NB_3_LongA.png',2531.599516037803,75947.98548113409,75947,2531.5666666666666
96,2531.62348625,75948.7045875,75948,2531.6,2532.2857205,75968.571615,75968,2532.266666666667,2534.31708975,76029.5126925,76029,2534.3,-0.6829933592453017,1,1,6,2,1.0,2.0,b'NB_21_ShortA.png',2533.6340963907546,76009.02289172263,76009,2533.633333333333
97,2533.6529339999997,76009.58802,76009,2533.633333333333,2534.2149815,76026.44944499999,76026,2534.2,2536.2463355,76087.390065,76087,2536.233333333333,1.3745004719567078,1,1,6,2,1.0,2.0,b'NB_25_ShortA.png',2537.6208359719567,76128.6250791587,76128,2537.6
98,2537.6413545,76129.240635,76129,2537.633333333333,2538.18318225,76145.49546749999,76145,2538.1666666666665,2540.2141035,76206.423105,76206,2540.2,1.9623779282628675,2,1,2,1,2.0,3.0,b'SB_5_ShortA.png',2542.176481428263,76265.29444284788,76265,2542.1666666666665
99,2542.18496525,76265.5489575,76265,2542.1666666666665,2542.80708325,76284.21249749999,76284,2542.8,2544.83866425,76345.1599275,76345,2544.8333333333335,2.652504849349498,1,1,7,2,1.0,3.0,b'NB_7_LongA.png',2547.4911690993495,76424.73507298049,76424,2547.4666666666667
100,2547.4963055,76424.889165,76424,2547.4666666666667,2548.1386402499998,76444.1592075,76444,2548.133333333333,2550.1699825,76505.099475,76505,2550.1666666666665,1.7351464540879533,1,2,6,2,2.0,2.0,b'NB_14_ShortA.png',2551.905128954088,76557.15386862264,76557,2551.9
101,2551.9176385,76557.529155,76557,2551.9,2552.580086,76577.40258,76577,2552.5666666666666,2554.6107602499997,76638.3228075,76638,2554.6,0.6139303596246464,2,2,7,2,2.0,3.0,b'SB_26_ShortA.png',2555.2246906096243,76656.74071828873,76656,2555.2
102,2555.23590775,76657.0772325,76657,2555.233333333333,2555.8579584999998,76675.738755,76675,2555.8333333333335,2557.8891605,76736.67481499999,76736,2557.866666666667,0.9065814823443361,2,2,6,2,2.0,2.0,b'SB_43_ShortA.png',2558.795741982344,76763.87225947033,76763,2558.766666666667
103,2558.8181095,76764.54328499999,76764,2558.8,2559.42014075,76782.6042225,76782,2559.4,2561.45148775,76843.54463250001,76843,2561.4333333333334,3.2293969966594887,1,1,6,2,1.0,2.0,b'NB_8_LongA.png',2564.6808847466596,76940.42654239979,76940,2564.6666666666665
104,2564.70064075,76941.01922249999,76941,2564.7,2565.24244975,76957.2734925,76957,2565.233333333333,2567.27331075,77018.19932249999,77018,2567.266666666667,1.148150746626925,3,2,3,1,1.0,2.0,b'HB_13_LongA.png',2568.4214614966268,77052.6438448988,77052,2568.4
105,2568.4287047499997,77052.8611425,77052,2568.4,2569.0510167499997,77071.53050249998,77071,2569.0333333333333,2571.08233025,77132.4699075,77132,2571.0666666666666,2.6323283653146063,2,1,6,2,1.0,2.0,b'SB_24_LongA.png',2573.7146586153144,77211.43975845943,77211,2573.7
106,2573.72817525,77211.8452575,77211,2573.7,2574.35028475,77230.5085425,77230,2574.3333333333335,2576.38164725,77291.4494175,77291,2576.366666666667,1.5542955601922586,2,1,6,2,1.0,2.0,b'SB_36_LongA.png',2577.935942810192,77338.07828430577,77338,2577.9333333333334
107,2577.94442425,77338.33272749999,77338,2577.9333333333334,2578.56666275,77356.9998825,77356,2578.5333333333333,2580.59797975,77417.9393925,77417,2580.5666666666666,1.9111695276624232,2,2,7,2,2.0,3.0,b'SB_51_ShortA.png',2582.5091492776623,77475.27447832987,77475,2582.5
108,2582.53313275,77475.99398249999,77475,2582.5,2583.1552165,77494.65649499999,77494,2583.133333333333,2585.1867245,77555.60173499999,77555,2585.1666666666665,1.2542723965125333,1,2,7,2,2.0,3.0,b'NB_17_ShortA.png',2586.4409968965124,77593.22990689537,77593,2586.4333333333334
109,2586.45638925,77593.6916775,77593,2586.4333333333334,2587.0985395,77612.95618499999,77612,2587.0666666666666,2589.1292357499997,77673.87707249999,77673,2589.1,2.2348006377214915,2,2,7,2,2.0,3.0,b'SB_23_ShortA.png',2591.364036387721,77740.92109163164,77740,2591.3333333333335
110,2591.3848077499997,77741.54423249999,77741,2591.366666666667,2591.9666045,77758.998135,77758,2591.9333333333334,2593.9981467499997,77819.9444025,77819,2593.9666666666667,0.29189853440766456,2,2,7,2,2.0,3.0,b'SB_13_ShortA.png',2594.2900452844074,77828.70135853223,77828,2594.266666666667
111,2594.298348,77828.95044,77828,2594.266666666667,2594.8602505,77845.807515,77845,2594.8333333333335,2596.89098375,77906.7295125,77906,2596.866666666667,-1.0852484650458791,3,2,7,2,2.0,3.0,b'HB_58_LongA.png',2595.805735284954,77874.17205854862,77874,2595.8
112,2595.81949125,77874.5847375,77874,2595.8,2596.461872,77893.85616,77893,2596.4333333333334,2598.49312925,77954.79387750001,77954,2598.4666666666667,1.7940064592876297,1,2,7,2,2.0,3.0,b'NB_16_ShortA.png',2600.2871357092877,78008.61407127863,78008,2600.266666666667
113,2600.3094265,78009.282795,78009,2600.3,2600.95159325,78028.5477975,78028,2600.9333333333334,2602.9829295,78089.487885,78089,2602.9666666666667,1.023611506094312,1,1,7,2,1.0,3.0,b'NB_4_LongA.png',2604.0065410060943,78120.19623018283,78120,2604.0
114,2604.02613075,78120.7839225,78120,2604.0,2604.58802575,78137.64077249999,78137,2604.5666666666666,2606.6193037499997,78198.5791125,78198,2606.6,2.1970795981796982,2,1,3,1,2.0,2.0,b'SB_49_LongA.png',2608.8163833481794,78264.49150044538,78264,2608.8
115,2608.83283175,78264.9849525,78264,2608.8,2609.45494325,78283.6482975,78283,2609.4333333333334,2611.486316,78344.58948,78344,2611.4666666666667,2.0765848572518735,3,1,6,2,1.0,2.0,b'HB_57_ShortA.png',2613.562900857252,78406.88702571756,78406,2613.5333333333333
116,2613.56829575,78407.04887249999,78407,2613.5666666666666,2614.15037,78424.51109999999,78424,2614.133333333333,2616.181745,78485.45234999999,78485,2616.1666666666665,1.2386627503947238,1,1,3,1,2.0,2.0,b'NB_20_LongA.png',2617.4204077503946,78522.61223251183,78522,2617.4
117,2617.44193125,78523.25793749999,78523,2617.4333333333334,2618.0842525,78542.527575,78542,2618.0666666666666,2620.1155395,78603.466185,78603,2620.1,3.1001115199578635,3,2,6,2,2.0,2.0,b'HB_43_ShortA.png',2623.215651019958,78696.46953059874,78696,2623.2
118,2623.2287404999997,78696.86221499999,78696,2623.2,2623.790599,78713.71797,78713,2623.766666666667,2625.8219775,78774.65932499999,78774,2625.8,2.295792501725373,3,1,6,2,1.0,2.0,b'HB_6_ShortA.png',2628.117770001725,78843.53310005175,78843,2628.1
119,2628.1312945,78843.938835,78843,2628.1,2628.6934145,78860.802435,78860,2628.6666666666665,2630.7243065,78921.72919499999,78921,2630.7,0.40260932306409813,3,2,3,1,1.0,2.0,b'HB_10_LongA.png',2631.126915823064,78933.80747469192,78933,2631.1
120,2631.140871,78934.22613,78934,2631.133333333333,2631.6828674999997,78950.48602499999,78950,2631.6666666666665,2633.7141815,79011.425445,79011,2633.7,2.455387458936457,3,1,6,2,1.0,2.0,b'HB_7_LongA.png',2636.1695689589365,79085.08706876809,79085,2636.1666666666665
121,2636.19379425,79085.8138275,79085,2636.1666666666665,2636.7956395,79103.869185,79103,2636.766666666667,2638.82689075,79164.8067225,79164,2638.8,0.5991120943726855,2,2,3,1,1.0,2.0,b'SB_29_LongA.png',2639.4260028443728,79182.78008533118,79182,2639.4
122,2639.437763,79183.13289,79183,2639.4333333333334,2640.059735,79201.79204999999,79201,2640.0333333333333,2642.090585,79262.71755,79262,2642.0666666666666,2.3885871863130888,1,1,6,2,1.0,2.0,b'NB_30_LongA.png',2644.479172186313,79334.37516558939,79334,2644.4666666666667
123,2644.4882482499997,79334.6474475,79334,2644.4666666666667,2645.0704065,79352.112195,79352,2645.0666666666666,2647.1018449999997,79413.05535,79413,2647.1,2.025507501537504,1,1,3,1,2.0,2.0,b'NB_4_ShortA.png',2649.127352501537,79473.82057504612,79473,2649.1
124,2649.14580275,79474.3740825,79474,2649.133333333333,2649.7882194999997,79493.646585,79493,2649.766666666667,2651.8196734999997,79554.59020499999,79554,2651.8,0.869057785224868,3,1,6,2,1.0,2.0,b'HB_27_LongA.png',2652.6887312852245,79580.66193855673,79580,2652.6666666666665
125,2652.71256525,79581.3769575,79581,2652.7,2653.27432625,79598.2297875,79598,2653.266666666667,2655.30563075,79659.1689225,79659,2655.3,2.335741609487741,2,2,3,1,1.0,2.0,b'SB_22_ShortA.png',2657.641372359488,79729.24117078463,79729,2657.633333333333
126,2657.653518,79729.60554,79729,2657.633333333333,2658.2355355,79747.06606499999,79747,2658.233333333333,2660.26681875,79808.00456249999,79808,2660.266666666667,-0.2682568547061237,1,2,3,1,1.0,2.0,b'NB_14_LongA.png',2659.9985618952937,79799.95685685881,79799,2659.9666666666667
127,2660.01956075,79800.5868225,79800,2660.0,2660.5814655,79817.443965,79817,2660.5666666666666,2662.6127874999997,79878.38362499999,79878,2662.6,2.2472621071319736,2,1,3,1,2.0,2.0,b'SB_8_ShortA.png',2664.8600496071317,79945.80148821395,79945,2664.8333333333335
128,2664.8685567499997,79946.05670249999,79946,2664.866666666667,2665.43044525,79962.9133575,79962,2665.4,2667.4617955,80023.853865,80023,2667.4333333333334,1.453148712629627,1,2,6,2,2.0,2.0,b'NB_19_ShortA.png',2668.9149442126295,80067.44832637889,80067,2668.9
129,2668.9285695,80067.857085,80067,2668.9,2669.5707294999997,80087.12188499999,80087,2669.5666666666666,2671.6020905,80148.06271500001,80148,2671.6,2.7019105105609924,2,2,3,1,1.0,2.0,b'SB_15_ShortA.png',2674.304001010561,80229.12003031683,80229,2674.3
130,2674.324662,80229.73986,80229,2674.3,2674.9268389999997,80247.80516999999,80247,2674.9,2676.9581285,80308.743855,80308,2676.9333333333334,2.1728231277847954,1,1,3,1,2.0,2.0,b'NB_13_ShortA.png',2679.1309516277847,80373.92854883354,80373,2679.1
131,2679.139276,80374.17828,80374,2679.133333333333,2679.74132625,80392.2397875,80392,2679.733333333333,2681.7724805,80453.17441499999,80453,2681.766666666667,1.7929102522502944,2,1,3,1,2.0,2.0,b'SB_52_LongA.png',2683.56539075225,80506.9617225675,80506,2683.5333333333333
132,2683.5709657499997,80507.1289725,80507,2683.5666666666666,2684.13289025,80523.9867075,80523,2684.1,2686.1642225,80584.926675,80584,2686.133333333333,0.9708960311763803,1,2,6,2,2.0,2.0,b'NB_29_LongA.png',2687.1351185311764,80614.05355593529,80614,2687.133333333333
133,2687.1456359999997,80614.36907999999,80614,2687.133333333333,2687.7073837499997,80631.2215125,80631,2687.7,2689.7388335,80692.165005,80692,2689.733333333333,1.4306422310146445,3,2,6,2,2.0,2.0,b'HB_53_ShortA.png',2691.1694757310147,80735.08427193043,80735,2691.1666666666665
134,2691.18756325,80735.6268975,80735,2691.1666666666665,2691.769671,80753.09013,80753,2691.766666666667,2693.8010139999997,80814.03042,80814,2693.8,0.34544575154359336,1,2,3,1,1.0,2.0,b'NB_5_LongA.png',2694.1464597515433,80824.3937925463,80824,2694.133333333333
135,2694.1695365,80825.086095,80825,2694.1666666666665,2694.73168325,80841.9504975,80841,2694.7,2696.7629445,80902.888335,80902,2696.733333333333,2.122189307363442,2,1,7,2,1.0,3.0,b'SB_58_LongA.png',2698.885133807363,80966.55401422089,80966,2698.866666666667
136,2698.89740175,80966.9220525,80966,2698.866666666667,2699.5397935,80986.193805,80986,2699.5333333333333,2701.57112325,81047.13369749999,81047,2701.5666666666666,0.9219161625551351,2,2,2,1,1.0,3.0,b'SB_19_ShortA.png',2702.493039412555,81074.79118237665,81074,2702.4666666666667
137,2702.505118,81075.15354,81075,2702.5,2703.147282,81094.41846,81094,2703.133333333333,2705.178621,81155.35863,81155,2705.1666666666665,1.822333404343226,1,2,3,1,1.0,2.0,b'NB_20_ShortA.png',2707.0009544043432,81210.0286321303,81210,2707.0
138,2707.0098075,81210.294225,81210,2707.0,2707.5716654999997,81227.14996499999,81227,2707.5666666666666,2709.60296425,81288.0889275,81288,2709.6,2.4044792640488595,1,2,2,1,1.0,3.0,b'NB_1_ShortA.png',2712.0074435140486,81360.22330542146,81360,2712.0
139,2712.021831,81360.65493,81360,2712.0,2712.64391875,81379.3175625,81379,2712.633333333333,2714.67480325,81440.24409749999,81440,2714.6666666666665,2.4141141872787557,3,2,7,2,2.0,3.0,b'HB_44_ShortA.png',2717.0889174372787,81512.66752311836,81512,2717.0666666666666
140,2717.10327675,81513.0983025,81513,2717.1,2717.7253152499998,81531.7594575,81531,2717.7,2719.756816,81592.70448,81592,2719.733333333333,-0.8014039283589227,3,2,7,2,2.0,3.0,b'HB_1_LongA.png',2718.955412071641,81568.66236214923,81568,2718.9333333333334
141,2718.9762905,81569.28871499999,81569,2718.9666666666667,2719.6185069999997,81588.55520999999,81588,2719.6,2721.64921075,81649.47632249999,81649,2721.633333333333,0.3213771839509718,3,1,2,1,2.0,3.0,b'HB_23_ShortA.png',2721.970587933951,81659.11763801852,81659,2721.9666666666667
142,2721.98071075,81659.4213225,81659,2721.9666666666667,2722.56266675,81676.8800025,81676,2722.5333333333333,2724.593579,81737.80737,81737,2724.5666666666666,0.9966871685210208,3,2,6,2,2.0,2.0,b'HB_12_ShortA.png',2725.590266168521,81767.70798505563,81767,2725.5666666666666
143,2725.61041175,81768.3123525,81768,2725.6,2726.2326155,81786.97846500001,81786,2726.2,2728.264045,81847.92134999999,81847,2728.233333333333,2.078268416273204,3,2,7,2,2.0,3.0,b'HB_51_ShortA.png',2730.342313416273,81910.2694024882,81910,2730.3333333333335
144,2730.359652,81910.78956,81910,2730.3333333333335,2731.0017977499997,81930.05393249998,81930,2731.0,2733.033185,81990.99554999999,81990,2733.0,-0.12012185798812425,2,2,7,2,2.0,3.0,b'SB_30_LongA.png',2732.9130631420117,81987.39189426035,81987,2732.9
145,2732.93002875,81987.9008625,81987,2732.9,2733.4719272499997,82004.15781749999,82004,2733.4666666666667,2735.50308825,82065.0926475,82065,2735.5,2.751635052034544,1,1,3,1,2.0,2.0,b'NB_18_ShortA.png',2738.2547233020346,82147.64169906103,82147,2738.233333333333
146,2738.27949725,82148.3849175,82148,2738.266666666667,2738.8412534999998,82165.23760499999,82165,2738.8333333333335,2740.8725655,82226.17696499999,82226,2740.866666666667,0.8453399969221209,2,2,7,2,2.0,3.0,b'SB_31_LongA.png',2741.717905496922,82251.53716490766,82251,2741.7
147,2741.734148,82252.02444,82252,2741.733333333333,2742.3161,82269.48300000001,82269,2742.3,2744.3473477499997,82330.42043249999,82330,2744.3333333333335,1.3320474691972777,3,1,6,2,1.0,2.0,b'HB_35_LongA.png',2745.679395219197,82370.38185657591,82370,2745.6666666666665
148,2745.690976,82370.72928,82370,2745.6666666666665,2746.3331707499997,82389.9951225,82389,2746.3,2748.36446175,82450.93385249999,82450,2748.3333333333335,4.5317987045236805,1,2,6,2,2.0,2.0,b'NB_12_ShortA.png',2752.8962604545236,82586.88781363571,82586,2752.866666666667
149,2752.9128297499997,82587.38489249999,82587,2752.9,2753.534895,82606.04685,82606,2753.5333333333333,2755.5662402499997,82666.98720749999,82666,2755.5333333333333,1.434703445102059,3,2,6,2,2.0,2.0,b'HB_34_ShortA.png',2757.000943695102,82710.02831085306,82710,2757.0
150,2757.020148,82710.60444,82710,2757.0,2757.64224175,82729.2672525,82729,2757.633333333333,2759.67352425,82790.2057275,82790,2759.6666666666665,2.043926197453402,2,2,3,1,1.0,2.0,b'SB_12_ShortA.png',2761.7174504474533,82851.5235134236,82851,2761.7
151,2761.7372255,82852.116765,82852,2761.733333333333,2762.3191939999997,82869.57582,82869,2762.3,2764.3499162499998,82930.49748749999,82930,2764.3333333333335,0.9410003557350137,3,1,3,1,2.0,2.0,b'HB_47_LongA.png',2765.2909166057348,82958.72749817204,82958,2765.266666666667
152,2765.2977865,82958.933595,82958,2765.266666666667,2765.899771,82976.99313,82976,2765.866666666667,2767.93117825,83037.9353475,83037,2767.9,0.8976686909227283,2,1,3,1,2.0,2.0,b'SB_35_ShortA.png',2768.8288469409226,83064.86540822768,83064,2768.8
153,2768.835471,83065.06413,83065,2768.8333333333335,2769.477606,83084.32818,83084,2769.4666666666667,2771.50892825,83145.2678475,83145,2771.5,1.4781846512378252,2,1,6,2,1.0,2.0,b'SB_17_LongA.png',2772.9871129012377,83189.61338703713,83189,2772.9666666666667
154,2773.00363175,83190.1089525,83190,2773.0,2773.6058095,83208.174285,83208,2773.6,2775.6371314999997,83269.11394499999,83269,2775.633333333333,2.8924371735447494,1,1,3,1,2.0,2.0,b'NB_23_ShortA.png',2778.5295686735444,83355.88706020633,83355,2778.5
155,2778.55124425,83356.5373275,83356,2778.5333333333333,2779.17332925,83375.1998775,83375,2779.1666666666665,2781.2046875,83436.140625,83436,2781.2,2.428078351000295,2,1,6,2,1.0,2.0,b'SB_14_ShortA.png',2783.6327658510004,83508.98297553002,83508,2783.6
156,2783.6381107499997,83509.1433225,83509,2783.633333333333,2784.18010275,83525.40308250001,83525,2784.1666666666665,2786.210807,83586.32420999999,83586,2786.2,2.138808680625516,1,2,6,2,2.0,2.0,b'NB_19_LongA.png',2788.3496156806254,83650.48847041876,83650,2788.3333333333335
157,2788.3677865,83651.033595,83651,2788.366666666667,2789.0099462499998,83670.29838749999,83670,2789.0,2791.0414745,83731.24423499999,83731,2791.0333333333333,2.926834892063198,2,1,6,2,1.0,2.0,b'SB_46_LongA.png',2793.968309392063,83819.0492817619,83819,2793.9666666666667
158,2793.990528,83819.71583999999,83819,2793.9666666666667,2794.61261925,83838.3785775,83838,2794.6,2796.6439075,83899.31722499999,83899,2796.633333333333,4.45696747141119,3,2,6,2,2.0,2.0,b'HB_8_ShortA.png',2801.100874971411,84033.02624914233,84033,2801.1
159,2801.11059475,84033.3178425,84033,2801.1,2801.7324802499998,84051.97440749999,84051,2801.7,2803.7640345,84112.921035,84112,2803.733333333333,2.1619742514012614,3,2,3,1,1.0,2.0,b'HB_37_LongA.png',2805.9260087514012,84177.78026254204,84177,2805.9
160,2805.950841,84178.52523,84178,2805.9333333333334,2806.5326422499998,84195.97926749999,84195,2806.5,2808.563533,84256.90599,84256,2808.5333333333333,2.2445000470543164,1,2,3,1,1.0,2.0,b'NB_8_ShortA.png',2810.8080330470543,84324.24099141163,84324,2810.8
161,2810.81545,84324.4635,84324,2810.8,2811.39756325,84341.9268975,84341,2811.366666666667,2813.4287612499998,84402.8628375,84402,2813.4,1.277940248914092,2,2,6,2,2.0,2.0,b'SB_25_shortA.png',2814.706701498914,84441.20104496741,84441,2814.7
162,2814.7191,84441.57299999999,84441,2814.7,2815.3614035,84460.842105,84460,2815.3333333333335,2817.39260375,84521.7781125,84521,2817.366666666667,0.20033918447006727,3,2,3,1,1.0,2.0,b'HB_42_LongA.png',2817.59294293447,84527.7882880341,84527,2817.5666666666666
163,2817.6065915,84528.197745,84528,2817.6,2818.2488875,84547.466625,84547,2818.233333333333,2820.2800967499998,84608.40290249999,84608,2820.266666666667,2.3106583110493375,3,2,6,2,2.0,2.0,b'HB_5_LongA.png',2822.590755061049,84677.72265183147,84677,2822.5666666666666
164,2822.5962165,84677.886495,84677,2822.5666666666666,2823.1582195,84694.746585,84694,2823.133333333333,2825.18956575,84755.6869725,84755,2825.1666666666665,2.543003389993828,1,1,6,2,1.0,2.0,b'NB_9_LongA.png',2827.7325691399938,84831.9770741998,84831,2827.7
165,2827.7375657499997,84832.12697249999,84832,2827.733333333333,2828.2996292499997,84848.98887749999,84848,2828.266666666667,2830.3309934999997,84909.92980499999,84909,2830.3,-1.5706182603316847,3,1,3,1,2.0,2.0,b'HB_30_ShortA.png',2828.760375239668,84862.81125719004,84862,2828.733333333333
166,2828.77845875,84863.3537625,84863,2828.766666666667,2829.3403492499997,84880.21047749999,84880,2829.3333333333335,2831.371096,84941.13287999999,84941,2831.366666666667,2.291016016406502,1,2,6,2,2.0,2.0,b'NB_26_ShortA.png',2833.6621120164064,85009.86336049219,85009,2833.633333333333
167,2833.67741075,85010.3223225,85010,2833.6666666666665,2834.27942875,85028.3828625,85028,2834.266666666667,2836.31017825,85089.30534749999,85089,2836.3,3.0586310741527996,3,1,3,1,2.0,2.0,b'HB_4_LongA.png',2839.3688093241526,85181.06427972458,85181,2839.366666666667
168,2839.3876219999997,85181.62865999999,85181,2839.366666666667,2840.029778,85200.89334000001,85200,2840.0,2842.0605385,85261.816155,85261,2842.0333333333333,0.5236714038182981,2,2,3,1,1.0,2.0,b'SB_56_LongA.png',2842.584209903818,85277.52629711454,85277,2842.5666666666666
169,2842.60052625,85278.0157875,85278,2842.6,2843.18262625,85295.4787875,85295,2843.1666666666665,2845.2133755,85356.401265,85356,2845.2,0.6463909347658046,2,2,6,2,2.0,2.0,b'SB_27_ShortA.png',2845.859766434766,85375.79299304297,85375,2845.8333333333335
170,2845.8706945,85376.120835,85376,2845.866666666667,2846.4927802499997,85394.78340749998,85394,2846.4666666666667,2848.524141,85455.72422999999,85455,2848.5,1.2344920525865746,1,2,6,2,2.0,2.0,b'NB_27_LongA.png',2849.7586330525864,85492.75899157759,85492,2849.733333333333
171,2849.7701915,85493.105745,85493,2849.766666666667,2850.392277,85511.76831,85511,2850.366666666667,2852.4236954999997,85572.71086499999,85572,2852.4,-1.6060911776512512,3,2,6,2,2.0,2.0,b'HB_25_ShortA.png',2850.8176043223484,85524.52812967045,85524,2850.8
172,2850.8374907499997,85525.1247225,85525,2850.8333333333335,2851.459579,85543.78736999999,85543,2851.4333333333334,2853.4909509999998,85604.72853,85604,2853.4666666666667,3.2376418234453013,2,1,6,2,1.0,2.0,b'SB_1_ShortA.png',2856.728592823445,85701.85778470334,85701,2856.7
173,2856.7336177499997,85702.0085325,85702,2856.733333333333,2857.355876,85720.67628,85720,2857.3333333333335,2859.38665775,85781.59973249999,85781,2859.366666666667,2.5828669128713955,3,2,3,1,1.0,2.0,b'HB_52_LongA.png',2861.969524662871,85859.08573988614,85859,2861.9666666666667
174,2861.9799092499998,85859.39727749999,85859,2861.9666666666667,2862.54182975,85876.2548925,85876,2862.5333333333333,2864.57319725,85937.1959175,85937,2864.5666666666666,-0.4917717276584881,2,2,6,2,2.0,2.0,b'SB_39_ShortA.png',2864.0814255223413,85922.44276567025,85922,2864.0666666666666
175,2864.0905844999997,85922.71753499999,85922,2864.0666666666666,2864.7126722499997,85941.3801675,85941,2864.7,2866.74343075,86002.30292249999,86002,2866.733333333333,-0.8760572079263511,3,2,7,2,2.0,3.0,b'HB_26_LongA.png',2865.8673735420734,85976.0212062622,85976,2865.866666666667
176,2865.8899155,85976.697465,85976,2865.866666666667,2866.49223175,85994.7669525,85994,2866.4666666666667,2868.5229695,86055.68908499999,86055,2868.5,1.343044712808478,3,2,6,2,2.0,2.0,b'HB_15_ShortA.png',2869.8660142128083,86095.98042638425,86095,2869.8333333333335
177,2869.8801805,86096.405415,86096,2869.866666666667,2870.4824332499998,86114.4729975,86114,2870.4666666666667,2872.5137287499997,86175.4118625,86175,2872.5,-0.5270702509587863,1,2,7,2,2.0,3.0,b'NB_6_LongA.png',2871.986658499041,86159.59975497123,86159,2871.9666666666667
178,2871.999274,86159.97821999999,86159,2871.9666666666667,2872.5611719999997,86176.83515999999,86176,2872.5333333333333,2874.5926385,86237.779155,86237,2874.5666666666666,1.5843877798397443,1,2,7,2,2.0,3.0,b'NB_22_LongA.png',2876.1770262798395,86285.31078839519,86285,2876.1666666666665
179,2876.22250025,86286.6750075,86286,2876.2,2876.794816,86303.84448,86303,2876.766666666667,2878.879634,86366.38902,86366,2878.866666666667,1.56293166256728,2,2,7,2,2.0,3.0,b'SB_30_LongA.png',2880.442565662567,86413.27696987701,86413,2880.4333333333334
180,2880.47667375,86414.30021249999,86414,2880.4666666666667,2881.0090105,86430.270315,86430,2881.0,2883.0474529999997,86491.42358999999,86491,2883.0333333333333,1.0318745708318602,2,1,2,1,2.0,3.0,b'SB_30_ShortA.png',2884.0793275708315,86522.37982712494,86522,2884.0666666666666
