trial_num,fixcross_time,fixation_HZ,fixation_bin,fixation_regarded,start_time,Fstart_HZ,Fstart_bin,Fstart_regarded,stop_time,Fstop_HZ,Fstop_bin,Fstop_regarded,RT,boundary_type,key,resp_value,leftright,accuracy,confidence,frameName,response_time,response_HZ,response_bin,response_regarded
1,2105.7358222499997,63172.07466749999,63172,2105.733333333333,2106.3177525,63189.532575000005,63189,2106.3,2108.3718205,63251.154615,63251,2108.366666666667,2.640449716161129,1,2,6,2,2.0,2.0,b'NB_8_ShortA.png',2111.012270216161,63330.368106484835,63330,2111.0
2,2111.056512,63331.695360000005,63331,2111.0333333333333,2111.67861375,63350.3584125,63350,2111.6666666666665,2113.70961025,63411.2883075,63411,2113.7,1.5620567118417057,2,1,3,1,2.0,2.0,b'SB_3_ShortA.png',2115.2716669618417,63458.15000885525,63458,2115.266666666667
3,2115.29836975,63458.9510925,63458,2115.266666666667,2115.86028975,63475.8086925,63475,2115.8333333333335,2117.8913405,63536.740215,63536,2117.866666666667,0.48295597753440234,1,1,3,1,2.0,2.0,b'NB_18_ShortA.png',2118.3742964775342,63551.22889432603,63551,2118.366666666667
4,2118.4031805,63552.095414999996,63552,2118.4,2119.06574375,63571.972312499995,63571,2119.0333333333333,2121.0967312499997,63632.90193749999,63632,2121.0666666666666,3.3747238838186604,3,2,6,2,2.0,2.0,b'HB_45_ShortA.png',2124.4714551338184,63734.14365401455,63734,2124.4666666666667
5,2124.482614,63734.47842,63734,2124.4666666666667,2125.145141,63754.35423,63754,2125.133333333333,2127.1994405,63815.983215,63815,2127.1666666666665,1.6965931011668545,3,2,6,2,2.0,2.0,b'HB_52_ShortA.png',2128.896033601167,63866.88100803501,63866,2128.866666666667
6,2128.92753575,63867.8260725,63867,2128.9,2129.509485,63885.284550000004,63885,2129.5,2131.5408964999997,63946.22689499999,63946,2131.5333333333333,1.6031142255324085,3,1,6,2,1.0,2.0,b'HB_55_LongA.png',2133.144010725532,63994.32032176596,63994,2133.133333333333
7,2133.160479,63994.81437000001,63994,2133.133333333333,2133.74259525,64012.2778575,64012,2133.733333333333,2135.773904,64073.21712,64073,2135.766666666667,1.0915478868782884,1,1,3,1,2.0,2.0,b'NB_27_ShortA.png',2136.8654518868784,64105.96355660635,64105,2136.8333333333335
8,2136.8887035,64106.66110499999,64106,2136.866666666667,2137.5510295,64126.530885,64126,2137.5333333333333,2139.58198175,64187.4594525,64187,2139.5666666666666,1.7220551265263566,1,1,3,1,2.0,2.0,b'NB_6_LongA.png',2141.3040368765264,64239.121106295795,64239,2141.3
9,2141.32556875,64239.7670625,64239,2141.3,2141.907738,64257.23213999999,64257,2141.9,2143.9382742499997,64318.148227499994,64318,2143.9333333333334,1.519176828253876,2,1,3,1,2.0,2.0,b'SB_44_ShortA.png',2145.4574510782536,64363.723532347605,64363,2145.4333333333334
10,2145.478313,64364.34939,64364,2145.4666666666667,2146.10063025,64383.0189075,64383,2146.1,2148.1313382499998,64443.94014749999,64443,2148.1,2.1219211566858576,1,1,3,1,2.0,2.0,b'NB_7_LongA.png',2150.2532594066856,64507.597782200566,64507,2150.233333333333
11,2150.26821225,64508.0463675,64508,2150.266666666667,2150.89034575,64526.710372500005,64526,2150.866666666667,2152.92129075,64587.6387225,64587,2152.9,2.0313398460525605,3,2,3,1,1.0,2.0,b'HB_42_LongA.png',2154.9526305960526,64648.578917881576,64648,2154.9333333333334
12,2154.96842975,64649.052892499996,64649,2154.9666666666667,2155.550316,64666.50947999999,64666,2155.5333333333333,2157.5810315,64727.430945,64727,2157.5666666666666,3.0873654683177847,3,2,3,1,1.0,2.0,b'HB_12_LongA.png',2160.6683969683177,64820.05190904953,64820,2160.6666666666665
13,2160.6845869999997,64820.53760999999,64820,2160.6666666666665,2161.2868175,64838.604524999995,64838,2161.266666666667,2163.3181557499997,64899.54467249999,64899,2163.3,2.5633544154666197,3,1,6,2,1.0,2.0,b'HB_54_ShortA.png',2165.8815101654664,64976.44530496399,64976,2165.866666666667
14,2165.89122375,64976.736712499995,64976,2165.866666666667,2166.5336052499997,64996.00815749999,64996,2166.5333333333333,2168.5642332499997,65056.92699749999,65056,2168.5333333333333,2.2244608262617476,3,2,6,2,2.0,2.0,b'HB_6_ShortA.png',2170.7886940762614,65123.66082228784,65123,2170.766666666667
15,2170.811413,65124.34239,65124,2170.8,2171.433719,65143.01157,65143,2171.4333333333334,2173.46504125,65203.9512375,65203,2173.4333333333334,2.3323316133651133,1,2,6,2,2.0,2.0,b'NB_19_ShortA.png',2175.797372863365,65273.92118590095,65273,2175.766666666667
16,2175.8024917499997,65274.07475249999,65274,2175.8,2176.4648485,65293.945454999994,65293,2176.4333333333334,2178.49567175,65354.8701525,65354,2178.4666666666667,1.5463633037825275,1,2,6,2,2.0,2.0,b'NB_21_LongA.png',2180.0420350537825,65401.261051613474,65401,2180.0333333333333
17,2180.0512105,65401.53631499999,65401,2180.0333333333333,2180.673451,65420.203530000006,65420,2180.6666666666665,2182.7047595,65481.142785,65481,2182.7,3.182408531735746,3,1,3,1,2.0,2.0,b'HB_28_LongA.png',2185.8871680317357,65576.61504095206,65576,2185.866666666667
18,2185.8963424999997,65576.890275,65576,2185.866666666667,2186.5388292499997,65596.16487749999,65596,2186.5333333333333,2188.5693927499997,65657.0817825,65657,2188.5666666666666,1.6146540757954426,1,1,3,1,2.0,2.0,b'NB_22_LongA.png',2190.184046825795,65705.52140477386,65705,2190.1666666666665
19,2190.197475,65705.92425,65705,2190.1666666666665,2190.7996835,65723.990505,65723,2190.766666666667,2192.8310715,65784.932145,65784,2192.8,2.333373418168776,1,2,6,2,2.0,2.0,b'NB_11_LongA.png',2195.1644449181686,65854.93334754505,65854,2195.133333333333
20,2195.1860982499998,65855.58294749999,65855,2195.1666666666665,2195.76829625,65873.0488875,65873,2195.766666666667,2197.79961225,65933.9883675,65933,2197.766666666667,1.7876298482374295,2,2,6,2,2.0,2.0,b'SB_23_ShortA.png',2199.5872420982373,65987.61726294713,65987,2199.5666666666666
21,2199.5983244999998,65987.94973499999,65987,2199.5666666666666,2200.1801375,66005.404125,66005,2200.1666666666665,2202.2110135,66066.330405,66066,2202.2,2.45713542332669,1,2,6,2,2.0,2.0,b'NB_20_ShortA.png',2204.6681489233265,66140.0444676998,66140,2204.6666666666665
22,2204.67759075,66140.3277225,66140,2204.6666666666665,2205.27995525,66158.3986575,66158,2205.266666666667,2207.31111125,66219.33333750001,66219,2207.3,1.3045797633299117,2,1,3,1,2.0,2.0,b'SB_56_ShortA.png',2208.61569101333,66258.4707303999,66258,2208.6
23,2208.6220135,66258.660405,66258,2208.6,2209.1838975,66275.516925,66275,2209.1666666666665,2211.214528,66336.43584,66336,2211.2,1.160654362544392,2,1,3,1,2.0,2.0,b'SB_40_LongA.png',2212.3751823625444,66371.25547087633,66371,2212.366666666667
24,2212.38715025,66371.61450750001,66371,2212.366666666667,2212.9895275,66389.685825,66389,2212.9666666666667,2215.020141,66450.60423,66450,2215.0,2.7512685913520727,1,2,6,2,2.0,2.0,b'NB_24_LongA.png',2217.771409591352,66533.14228774056,66533,2217.766666666667
25,2217.78540425,66533.5621275,66533,2217.766666666667,2218.4477775,66553.433325,66553,2218.4333333333334,2220.4783485,66614.35045499999,66614,2220.4666666666667,1.7571447395434916,2,1,3,1,2.0,2.0,b'SB_21_LongA.png',2222.2354932395433,66667.06479718629,66667,2222.233333333333
26,2222.25739725,66667.72191749999,66667,2222.233333333333,2222.8794737499998,66686.3842125,66686,2222.866666666667,2224.9100445,66747.301335,66747,2224.9,0.2929177259293283,1,1,6,2,1.0,2.0,b'NB_17_ShortA.png',2225.2029622259292,66756.08886677788,66756,2225.2
27,2225.209324,66756.27971999999,66756,2225.2,2225.83173175,66774.9519525,66774,2225.8,2227.86304325,66835.8912975,66835,2227.8333333333335,1.5133215071277846,3,1,3,1,2.0,2.0,b'HB_15_ShortA.png',2229.3763647571277,66881.29094271384,66881,2229.366666666667
28,2229.39892725,66881.9678175,66881,2229.366666666667,2230.001076,66900.03228,66900,2230.0,2232.031607,66960.94821,66960,2232.0,1.5224900325501949,2,2,6,2,2.0,2.0,b'SB_33_ShortA.png',2233.55409703255,67006.6229109765,67006,2233.5333333333333
29,2233.5660012499998,67006.98003749999,67006,2233.5333333333333,2234.2084345,67026.253035,67026,2234.2,2236.2391804999997,67087.17541499999,67087,2236.233333333333,1.5968810499985011,2,1,6,2,1.0,2.0,b'SB_48_ShortA.png',2237.8360615499982,67135.08184649995,67135,2237.8333333333335
30,2237.8459602499997,67135.37880749999,67135,2237.8333333333335,2238.4682015,67154.046045,67154,2238.4666666666667,2240.4989284999997,67214.967855,67214,2240.4666666666667,0.8405600672617766,1,1,3,1,2.0,2.0,b'NB_29_ShortA.png',2241.3394885672615,67240.18465701785,67240,2241.3333333333335
31,2241.3469729999997,67240.40918999999,67240,2241.3333333333335,2241.94919275,67258.4757825,67258,2241.9333333333334,2243.9799212499997,67319.39763749999,67319,2243.9666666666667,1.5497062170907157,3,2,4,1,1.0,1.0,b'HB_14_LongA.png',2245.5296274670904,67365.88882401271,67365,2245.5
32,2245.5363804999997,67366.09141499999,67366,2245.5333333333333,2246.0984605,67382.953815,67382,2246.0666666666666,2248.1290875,67443.872625,67443,2248.1,2.1319241377768776,2,1,3,1,2.0,2.0,b'SB_27_LongA.png',2250.261011637777,67507.8303491333,67507,2250.233333333333
33,2250.2808099999997,67508.4243,67508,2250.266666666667,2250.94301625,67528.2904875,67528,2250.9333333333334,2252.97373925,67589.2121775,67589,2252.9666666666667,2.0248868061812573,1,2,6,2,2.0,2.0,b'NB_16_ShortA.png',2254.9986260561814,67649.95878168545,67649,2254.9666666666667
34,2255.0043904999998,67650.131715,67650,2255.0,2255.6067785,67668.203355,67668,2255.6,2257.637374,67729.12122,67729,2257.633333333333,2.6315834942884067,1,1,3,1,2.0,2.0,b'NB_15_LongA.png',2260.2689574942883,67808.06872482866,67808,2260.266666666667
35,2260.2879479999997,67808.63844,67808,2260.266666666667,2260.8700555,67826.101665,67826,2260.866666666667,2262.90062675,67887.0188025,67887,2262.9,3.078230158079805,2,2,6,2,2.0,2.0,b'SB_8_LongA.png',2265.9788569080797,67979.3657072424,67979,2265.9666666666667
36,2265.99880575,67979.9641725,67979,2265.9666666666667,2266.6609787499997,67999.8293625,67999,2266.633333333333,2268.6916392499998,68060.7491775,68060,2268.6666666666665,1.0877221233490673,1,1,6,2,1.0,2.0,b'NB_10_LongA.png',2269.779361373349,68093.38084120046,68093,2269.766666666667
37,2269.80264375,68094.07931249999,68094,2269.8,2270.48496575,68114.5489725,68114,2270.4666666666667,2272.516,68175.48,68175,2272.5,2.3603056847564403,3,1,6,2,1.0,2.0,b'HB_22_ShortA.png',2274.8763056847565,68246.2891705427,68246,2274.866666666667
38,2274.8879592499998,68246.63877749999,68246,2274.866666666667,2275.5500695,68266.502085,68266,2275.5333333333333,2277.581492,68327.44476,68327,2277.5666666666666,2.629109758704999,3,1,4,1,2.0,1.0,b'HB_30_LongA.png',2280.210601758705,68406.31805276114,68406,2280.2
39,2280.2184602499997,68406.5538075,68406,2280.2,2280.8407035,68425.221105,68425,2280.8333333333335,2282.8714769999997,68486.14430999999,68486,2282.866666666667,1.5679980042827992,1,1,3,1,2.0,2.0,b'NB_10_ShortA.png',2284.4394750042825,68533.18425012847,68533,2284.4333333333334
40,2284.46453725,68533.9361175,68533,2284.4333333333334,2285.086506,68552.59518,68552,2285.0666666666666,2287.1171165,68613.513495,68613,2287.1,1.2172991244287914,2,2,4,1,1.0,1.0,b'SB_54_ShortA.png',2288.334415624429,68650.03246873287,68650,2288.3333333333335
41,2288.3564767499997,68650.6943025,68650,2288.3333333333335,2289.0187185,68670.561555,68670,2289.0,2291.04925225,68731.4775675,68731,2291.0333333333333,1.43650052963676,1,1,3,1,2.0,2.0,b'NB_3_LongA.png',2292.4857527796366,68774.5725833891,68774,2292.4666666666667
42,2292.5070057499997,68775.2101725,68775,2292.5,2293.1494005,68794.482015,68794,2293.133333333333,2295.1807182499997,68855.4215475,68855,2295.1666666666665,3.163057711636611,2,2,6,2,2.0,2.0,b'SB_57_LongA.png',2298.3437759616363,68950.31327884909,68950,2298.3333333333335
43,2298.361646,68950.84938,68950,2298.3333333333335,2298.98373025,68969.5119075,68969,2298.9666666666667,2301.01445975,69030.4337925,69030,2301.0,2.584278329110475,3,2,6,2,2.0,2.0,b'HB_19_LongA.png',2303.5987380791103,69107.9621423733,69107,2303.5666666666666
44,2303.62149025,69108.6447075,69108,2303.6,2304.223709,69126.71127,69126,2304.2,2306.2543582499998,69187.63074749999,69187,2306.233333333333,1.9054370216949792,2,2,6,2,2.0,2.0,b'SB_53_ShortA.png',2308.1597952716947,69244.79385815084,69244,2308.133333333333
45,2308.1734495,69245.203485,69245,2308.1666666666665,2308.7756765,69263.270295,69263,2308.766666666667,2310.8064145,69324.19243499999,69324,2310.8,1.7446313686814392,1,1,3,1,2.0,2.0,b'NB_5_LongA.png',2312.5510458686813,69376.53137606043,69376,2312.5333333333333
46,2312.5643415,69376.930245,69376,2312.5333333333333,2313.22675625,69396.8026875,69396,2313.2,2315.2580385,69457.741155,69457,2315.233333333333,1.3181834159072423,2,1,3,1,2.0,2.0,b'SB_22_ShortA.png',2316.5762219159074,69497.28665747722,69497,2316.5666666666666
47,2316.5818715,69497.456145,69497,2316.5666666666666,2317.2441005,69517.323015,69517,2317.233333333333,2319.2754175,69578.262525,69578,2319.266666666667,1.6290800901570037,3,2,3,1,1.0,2.0,b'HB_9_ShortA.png',2320.904497590157,69627.13492770471,69627,2320.9
48,2320.9173625,69627.520875,69627,2320.9,2321.539318,69646.17954,69646,2321.5333333333333,2323.57077275,69707.1231825,69707,2323.5666666666666,2.035323610334217,3,2,4,1,1.0,1.0,b'HB_20_LongA.png',2325.606096360334,69768.18289081001,69768,2325.6
49,2325.616599,69768.49797,69768,2325.6,2326.23898375,69787.1695125,69787,2326.233333333333,2328.2703134999997,69848.109405,69848,2328.266666666667,1.4389601252842112,1,1,3,1,2.0,2.0,b'NB_8_LongA.png',2329.709273625284,69891.27820875852,69891,2329.7
50,2329.71547375,69891.4642125,69891,2329.7,2330.33756175,69910.1268525,69910,2330.3333333333335,2332.368121,69971.04363,69971,2332.366666666667,2.2782910643263676,2,2,6,2,2.0,2.0,b'SB_51_LongA.png',2334.6464120643263,70039.39236192979,70039,2334.633333333333
51,2334.6689085,70040.067255,70040,2334.6666666666665,2335.29137375,70058.7412125,70058,2335.266666666667,2337.32263925,70119.6791775,70119,2337.3,2.1527868682173903,3,1,4,1,2.0,1.0,b'HB_59_ShortA.png',2339.4754261182175,70184.26278354652,70184,2339.4666666666667
52,2339.48147175,70184.4441525,70184,2339.4666666666667,2340.1035334999997,70203.106005,70203,2340.1,2342.13430475,70264.0291425,70264,2342.133333333333,2.0919706734853207,2,2,6,2,2.0,2.0,b'SB_34_LongA.png',2344.2262754234853,70326.78826270456,70326,2344.2
53,2344.24864825,70327.45944749999,70327,2344.233333333333,2344.8910459999997,70346.73138,70346,2344.866666666667,2346.9222635,70407.66790500001,70407,2346.9,1.4158691057955366,2,1,3,1,2.0,2.0,b'SB_9_ShortA.png',2348.3381326057956,70450.14397817387,70450,2348.3333333333335
54,2348.34652325,70450.39569749999,70450,2348.3333333333335,2348.9686294999997,70469.05888499999,70469,2348.9666666666667,2350.9992577499997,70529.97773249999,70529,2350.9666666666667,2.39866400707524,1,1,3,1,2.0,2.0,b'NB_3_ShortA.png',2353.397921757075,70601.93765271225,70601,2353.366666666667
55,2353.42158625,70602.6475875,70602,2353.4,2354.0434542499997,70621.30362749999,70621,2354.0333333333333,2356.0750037499997,70682.2501125,70682,2356.0666666666666,0.568773377245634,1,2,6,2,2.0,2.0,b'NB_26_ShortA.png',2356.6437771272454,70699.31331381736,70699,2356.633333333333
56,2356.66206725,70699.8620175,70699,2356.633333333333,2357.22396725,70716.7190175,70716,2357.2,2359.25524925,70777.6574775,70777,2359.233333333333,1.89965905858935,2,2,6,2,2.0,2.0,b'SB_35_LongA.png',2361.1549083085893,70834.64724925767,70834,2361.133333333333
57,2361.1759495,70835.278485,70835,2361.1666666666665,2361.81832825,70854.54984749999,70854,2361.8,2363.8489394999997,70915.46818499999,70915,2363.8333333333335,2.4899624923336887,3,1,3,1,2.0,2.0,b'HB_18_LongA.png',2366.3389019923334,70990.16705977,70990,2366.3333333333335
58,2366.347417,70990.42251,70990,2366.3333333333335,2366.94957775,71008.48733250001,71008,2366.9333333333334,2368.98021625,71069.4064875,71069,2368.9666666666667,2.4615814861613217,3,1,4,1,2.0,1.0,b'HB_29_ShortA.png',2371.4417977361613,71143.25393208484,71143,2371.4333333333334
59,2371.45224275,71143.56728250001,71143,2371.4333333333334,2372.014131,71160.42392999999,71160,2372.0,2374.0447852499997,71221.34355749999,71221,2374.0333333333333,2.5128556441745786,3,2,5,2,2.0,1.0,b'HB_40_LongA.png',2376.5576408941743,71296.72922682523,71296,2376.5333333333333
60,2376.5694317499997,71297.08295249999,71297,2376.5666666666666,2377.2319165,71316.957495,71316,2377.2,2379.2625175,71377.875525,71377,2379.233333333333,0.7699084706200665,2,2,2,1,1.0,3.0,b'SB_11_ShortA.png',2380.03242597062,71400.9727791186,71400,2380.0
61,2380.0405834999997,71401.217505,71401,2380.0333333333333,2380.62268775,71418.68063249999,71418,2380.6,2382.6540152499997,71479.62045749999,71479,2382.633333333333,3.4007486246737244,1,1,3,1,2.0,2.0,b'NB_13_ShortA.png',2386.0547638746734,71581.6429162402,71581,2386.0333333333333
62,2386.062186,71581.86558,71581,2386.0333333333333,2386.70454025,71601.13620749999,71601,2386.7,2388.7358655,71662.075965,71662,2388.733333333333,-0.04653764432487151,2,2,7,2,2.0,3.0,b'SB_42_ShortA.png',2388.689327855675,71660.67983567025,71660,2388.6666666666665
63,2388.7021287499997,71661.06386249998,71661,2388.7,2389.2841195,71678.523585,71678,2389.266666666667,2391.31463525,71739.4390575,71739,2391.3,2.0282399957013695,2,1,2,1,2.0,3.0,b'SB_15_ShortA.png',2393.342875245701,71800.28625737103,71800,2393.3333333333335
64,2393.35470725,71800.6412175,71800,2393.3333333333335,2393.916897,71817.50691,71817,2393.9,2395.94750275,71878.42508249999,71878,2395.9333333333334,1.0236021814148444,2,2,7,2,2.0,3.0,b'SB_28_LongA.png',2396.9711049314146,71909.13314794244,71909,2396.9666666666667
65,2396.9805604999997,71909.41681499999,71909,2396.9666666666667,2397.5824875,71927.474625,71927,2397.5666666666666,2399.61318275,71988.3954825,71988,2399.6,0.7166524807207679,1,2,6,2,2.0,2.0,b'NB_1_LongA.png',2400.3298352307206,72009.89505692162,72009,2400.3
66,2400.349083,72010.47249,72010,2400.3333333333335,2400.9711585,72029.134755,72029,2400.9666666666667,2403.0017319999997,72090.05196,72090,2403.0,1.7794722408584676,3,1,5,2,1.0,1.0,b'HB_50_ShortA.png',2404.781204240858,72143.43612722575,72143,2404.766666666667
67,2404.789412,72143.68236,72143,2404.766666666667,2405.4317619999997,72162.95285999999,72162,2405.4,2407.4623579999998,72223.87074,72223,2407.4333333333334,2.772801068105764,3,1,5,2,1.0,1.0,b'HB_2_LongA.png',2410.2351590681055,72307.05477204316,72307,2410.233333333333
68,2410.25176075,72307.5528225,72307,2410.233333333333,2410.83400825,72325.0202475,72325,2410.8333333333335,2412.86530975,72385.9592925,72385,2412.8333333333335,2.2676681087618817,2,2,7,2,2.0,3.0,b'SB_47_LongA.png',2415.132977858762,72453.98933576286,72453,2415.1
69,2415.154221,72454.62663,72454,2415.133333333333,2415.816453,72474.49359,72474,2415.8,2417.8477785,72535.433355,72535,2417.8333333333335,2.5979016104379298,1,1,3,1,2.0,2.0,b'NB_16_LongA.png',2420.445680110438,72613.37040331314,72613,2420.4333333333334
70,2420.45694225,72613.7082675,72613,2420.4333333333334,2421.0993565,72632.98069499999,72632,2421.0666666666666,2423.12996175,72693.8988525,72693,2423.1,2.24457984193441,2,2,6,2,2.0,2.0,b'SB_43_ShortA.png',2425.3745415919343,72761.23624775803,72761,2425.366666666667
71,2425.3882175,72761.64652499999,72761,2425.366666666667,2426.0103475,72780.310425,72780,2426.0,2428.041048,72841.23144,72841,2428.0333333333333,2.715776322679176,1,1,3,1,2.0,2.0,b'NB_28_ShortA.png',2430.756824322679,72922.70472968038,72922,2430.733333333333
72,2430.7649935,72922.949805,72922,2430.733333333333,2431.3671845,72941.015535,72941,2431.366666666667,2433.3978672499998,73001.93601749999,73001,2433.366666666667,2.5453059540045615,2,2,7,2,2.0,3.0,b'SB_4_LongA.png',2435.9431732040043,73078.29519612013,73078,2435.9333333333334
73,2435.96031175,73078.8093525,73078,2435.9333333333334,2436.5826305,73097.478915,73097,2436.5666666666666,2438.613226,73158.39678,73158,2438.6,3.1431268182864187,3,1,4,1,2.0,1.0,b'HB_24_LongA.png',2441.7563528182864,73252.69058454859,73252,2441.733333333333
74,2441.7754615,73253.263845,73253,2441.766666666667,2442.3777535,73271.332605,73271,2442.366666666667,2444.4082805,73332.248415,73332,2444.4,1.665920909270426,1,1,6,2,1.0,2.0,b'NB_30_ShortA.png',2446.0742014092702,73382.22604227811,73382,2446.0666666666666
75,2446.0944182499998,73382.83254749999,73382,2446.0666666666666,2446.73666525,73402.0999575,73402,2446.733333333333,2448.7681212499997,73463.04363749998,73463,2448.766666666667,2.1950398412946015,3,1,4,1,2.0,1.0,b'HB_53_ShortA.png',2450.9631610912943,73528.89483273884,73528,2450.9333333333334
76,2450.9841107499997,73529.5233225,73529,2450.9666666666667,2451.5462215,73546.38664499999,73546,2451.5333333333333,2453.57688625,73607.3065875,73607,2453.5666666666666,2.084509304122548,3,2,5,2,2.0,1.0,b'HB_51_ShortA.png',2455.6613955541225,73669.84186662367,73669,2455.633333333333
77,2455.685868,73670.57604,73670,2455.6666666666665,2456.32817225,73689.8451675,73689,2456.3,2458.35869625,73750.7608875,73750,2458.3333333333335,2.2758190629006094,2,2,3,1,1.0,2.0,b'SB_5_ShortA.png',2460.6345153129005,73819.03545938701,73819,2460.633333333333
78,2460.6524325,73819.572975,73819,2460.633333333333,2461.294579,73838.83737,73838,2461.266666666667,2463.3251609999998,73899.75482999999,73899,2463.3,1.9406786137728886,1,2,6,2,2.0,2.0,b'NB_12_ShortA.png',2465.2658396137726,73957.97518841318,73957,2465.233333333333
79,2465.27536375,73958.2609125,73958,2465.266666666667,2465.8375815,73975.12744499999,73975,2465.8333333333335,2467.8683177499997,74036.0495325,74036,2467.866666666667,1.442085961036355,1,1,3,1,2.0,2.0,b'NB_18_LongA.png',2469.310403711036,74079.31211133108,74079,2469.3
80,2469.3275025,74079.825075,74079,2469.3,2469.9497927499997,74098.4937825,74098,2469.9333333333334,2471.98035475,74159.4106425,74159,2471.9666666666667,2.366607669199311,2,2,3,1,1.0,2.0,b'SB_52_LongA.png',2474.3469624191994,74230.40887257598,74230,2474.3333333333335
81,2474.35401675,74230.6205025,74230,2474.3333333333335,2474.93611525,74248.0834575,74248,2474.9333333333334,2476.9674365,74309.023095,74309,2476.9666666666667,2.7293694399882042,3,2,3,1,1.0,2.0,b'HB_31_ShortA.png',2479.6968059399883,74390.90417819965,74390,2479.6666666666665
82,2479.71940275,74391.5820825,74391,2479.7,2480.3615637499997,74410.8469125,74410,2480.3333333333335,2482.39284425,74471.7853275,74471,2482.366666666667,2.420527280722581,1,1,3,1,2.0,2.0,b'NB_14_ShortA.png',2484.8133715307226,74544.40114592169,74544,2484.8
83,2484.8308537499997,74544.9256125,74544,2484.8,2485.43309275,74562.9927825,74562,2485.4,2487.4644125,74623.932375,74623,2487.4333333333334,1.7180108583775109,3,1,3,1,2.0,2.0,b'HB_4_ShortA.png',2489.1824233583775,74675.47270075133,74675,2489.1666666666665
84,2489.20693825,74676.2081475,74676,2489.2,2489.8490975,74695.472925,74695,2489.8333333333335,2491.87976725,74756.3930175,74756,2491.866666666667,1.6068183826723725,2,2,7,2,2.0,3.0,b'SB_29_ShortA.png',2493.4865856326724,74804.59756898017,74804,2493.4666666666667
85,2493.4916075,74804.748225,74804,2493.4666666666667,2494.15397575,74824.6192725,74824,2494.133333333333,2496.1853134999997,74885.55940499999,74885,2496.1666666666665,2.052131886448933,1,2,2,1,1.0,3.0,b'NB_23_ShortA.png',2498.2374453864486,74947.12336159346,74947,2498.233333333333
86,2498.2475165,74947.425495,74947,2498.233333333333,2498.86993,74966.0979,74966,2498.866666666667,2500.90131725,75027.0395175,75027,2500.9,3.666214727834358,3,2,4,1,1.0,1.0,b'HB_38_LongA.png',2504.5675319778343,75137.02595933503,75137,2504.5666666666666
87,2504.574937,75137.24811,75137,2504.5666666666666,2505.17718875,75155.3156625,75155,2505.1666666666665,2507.2077854999998,75216.23356499999,75216,2507.2,3.430562055266364,2,2,7,2,2.0,3.0,b'SB_46_LongA.png',2510.638347555266,75319.15042665799,75319,2510.633333333333
88,2510.6556175,75319.668525,75319,2510.633333333333,2511.23786775,75337.1360325,75337,2511.233333333333,2513.2685785,75398.057355,75398,2513.266666666667,2.001913919567869,2,1,2,1,2.0,3.0,b'SB_13_LongA.png',2515.2704924195677,75458.11477258703,75458,2515.266666666667
89,2515.28708075,75458.6124225,75458,2515.266666666667,2515.90919725,75477.2759175,75477,2515.9,2517.93995275,75538.1985825,75538,2517.9333333333334,2.097346296990054,2,2,7,2,2.0,3.0,b'SB_10_LongA.png',2520.03729904699,75601.1189714097,75601,2520.0333333333333
90,2520.047197,75601.41591,75601,2520.0333333333333,2520.6292645,75618.877935,75618,2520.6,2522.6597735,75679.793205,75679,2522.633333333333,1.747925123434925,3,2,5,2,2.0,1.0,b'HB_21_ShortA.png',2524.407698623435,75732.23095870305,75732,2524.4
91,2524.41318875,75732.3956625,75732,2524.4,2525.055616,75751.66848000001,75751,2525.0333333333333,2527.0872295,75812.616885,75812,2527.0666666666666,1.9811373119482596,1,1,2,1,2.0,3.0,b'NB_13_LongA.png',2529.068366811948,75872.05100435845,75872,2529.0666666666666
92,2529.07605725,75872.2817175,75872,2529.0666666666666,2529.71819,75891.5457,75891,2529.7,2531.748839,75952.46517,75952,2531.733333333333,2.4797351162110317,1,1,7,2,1.0,3.0,b'NB_19_LongA.png',2534.228574116211,76026.85722348632,76026,2534.2
93,2534.250293,76027.50879,76027,2534.233333333333,2534.83225925,76044.9677775,76044,2534.8,2536.8635205,76105.905615,76105,2536.8333333333335,2.7634511265518995,2,1,3,1,2.0,2.0,b'SB_36_LongA.png',2539.626971626552,76188.80914879656,76188,2539.6
94,2539.642104,76189.26312,76189,2539.633333333333,2540.2442512499997,76207.3275375,76207,2540.233333333333,2542.2755525,76268.26657499999,76268,2542.266666666667,1.05247148300532,2,1,5,2,1.0,1.0,b'SB_7_ShortA.png',2543.328023983005,76299.84071949015,76299,2543.3
95,2543.337432,76300.12296,76300,2543.3333333333335,2543.9195305,76317.58591499999,76317,2543.9,2545.9500707499997,76378.5021225,76378,2545.9333333333334,2.3629723240105704,3,1,5,2,1.0,1.0,b'HB_26_LongA.png',2548.3130430740102,76449.3912922203,76449,2548.3
96,2548.3221665,76449.664995,76449,2548.3,2548.9844605,76469.533815,76469,2548.9666666666667,2551.01573925,76530.4721775,76530,2551.0,4.003177637844601,2,1,7,2,1.0,3.0,b'SB_59_ShortA.png',2555.0189168878446,76650.56750663534,76650,2555.0
97,2555.026711,76650.80133,76650,2555.0,2555.6286465,76668.85939499999,76668,2555.6,2557.6594055,76729.782165,76729,2557.633333333333,1.7510970437588185,3,1,5,2,1.0,1.0,b'HB_25_ShortA.png',2559.410502543759,76782.31507631276,76782,2559.4
98,2559.4199197499997,76782.5975925,76782,2559.4,2560.02214225,76800.66426749999,76800,2560.0,2562.05347125,76861.60413749999,76861,2562.0333333333333,2.0049255782168984,3,1,5,2,1.0,1.0,b'HB_47_ShortA.png',2564.0583968282167,76921.7519048465,76921,2564.0333333333333
99,2564.0721835,76922.165505,76922,2564.0666666666666,2564.654294,76939.62882,76939,2564.633333333333,2566.6855982499997,77000.56794749999,77000,2566.6666666666665,1.730675067840366,1,1,5,2,1.0,1.0,b'NB_23_LongA.png',2568.41627331784,77052.4881995352,77052,2568.4
100,2568.43618375,77053.0855125,77053,2568.4333333333334,2568.9980355,77069.94106499999,77069,2568.9666666666667,2571.02975975,77130.89279249999,77130,2571.0,0.9274012703890548,2,2,7,2,2.0,3.0,b'SB_60_LongA.png',2571.957161020389,77158.71483061167,77158,2571.9333333333334
101,2571.9686402499997,77159.05920749999,77159,2571.9666666666667,2572.550615,77176.51845,77176,2572.5333333333333,2574.5812315,77237.436945,77237,2574.5666666666666,2.8412891459483944,2,2,7,2,2.0,3.0,b'SB_24_LongA.png',2577.422520645948,77322.67561937845,77322,2577.4
102,2577.4413664999997,77323.24099499999,77323,2577.4333333333334,2578.08367375,77342.5102125,77342,2578.0666666666666,2580.114287,77403.42861,77403,2580.1,2.2275693493857034,3,1,4,1,2.0,1.0,b'HB_56_LongA.png',2582.3418563493856,77470.25569048157,77470,2582.3333333333335
103,2582.3489015,77470.467045,77470,2582.3333333333335,2582.99105625,77489.7316875,77489,2582.9666666666667,2585.0216855,77550.65056499999,77550,2585.0,2.7507159140982367,1,1,7,2,1.0,3.0,b'NB_27_LongA.png',2587.772401414098,77633.17204242294,77633,2587.766666666667
104,2587.779075,77633.37225,77633,2587.766666666667,2588.3613354999998,77650.840065,77650,2588.3333333333335,2590.3926537499997,77711.77961249999,77711,2590.366666666667,1.779502629930903,1,2,5,2,2.0,1.0,b'NB_26_LongA.png',2592.1721563799306,77765.16469139792,77765,2592.1666666666665
105,2592.1902419999997,77765.70726,77765,2592.1666666666665,2592.83265725,77784.9797175,77784,2592.8,2594.8639787499997,77845.91936249999,77845,2594.8333333333335,3.122327799243976,3,1,4,1,2.0,1.0,b'HB_36_ShortA.png',2597.9863065492436,77939.5891964773,77939,2597.9666666666667
106,2598.0052895,77940.158685,77940,2598.0,2598.6073269999997,77958.21981,77958,2598.6,2600.6382157499997,78019.1464725,78019,2600.633333333333,2.775049503066839,2,2,5,2,2.0,1.0,b'SB_49_LongA.png',2603.4132652530666,78102.397957592,78102,2603.4
107,2603.4196979999997,78102.59094,78102,2603.4,2604.0018244999997,78120.05473499998,78120,2604.0,2606.033106,78180.99317999999,78180,2606.0,1.3245532153455315,2,1,2,1,2.0,3.0,b'SB_6_ShortA.png',2607.3576592153454,78220.72977646036,78220,2607.3333333333335
108,2607.372206,78221.16618,78221,2607.366666666667,2607.9342635,78238.027905,78238,2607.9333333333334,2609.96507375,78298.95221250001,78298,2609.9333333333334,2.347973402350817,1,2,7,2,2.0,3.0,b'NB_4_LongA.png',2612.313047152351,78369.39141457053,78369,2612.3
109,2612.3349395,78370.048185,78370,2612.3333333333335,2612.9170395,78387.51118500001,78387,2612.9,2614.9475345,78448.426035,78448,2614.9333333333334,2.0345723652699235,3,1,5,2,1.0,1.0,b'HB_7_ShortA.png',2616.98210686527,78509.4632059581,78509,2616.9666666666667
110,2617.00028475,78510.0085425,78510,2617.0,2617.66251775,78529.8755325,78529,2617.633333333333,2619.6934029999998,78590.80209,78590,2619.6666666666665,0.3803951152044647,2,2,7,2,2.0,3.0,b'SB_18_LongA.png',2620.073798115204,78602.21394345612,78602,2620.0666666666666
111,2620.09690225,78602.9070675,78602,2620.0666666666666,2620.7592972499997,78622.77891749999,78622,2620.733333333333,2622.79059225,78683.7177675,78683,2622.766666666667,1.1462629523025498,2,2,7,2,2.0,3.0,b'SB_50_LongA.png',2623.9368552023025,78718.10565606908,78718,2623.9333333333334
112,2623.94697425,78718.4092275,78718,2623.9333333333334,2624.548984,78736.46952,78736,2624.5333333333333,2626.5803149999997,78797.40944999999,78797,2626.5666666666666,1.8588179248577035,1,2,3,1,1.0,2.0,b'NB_24_ShortA.png',2628.4391329248574,78853.17398774571,78853,2628.4333333333334
113,2628.4508335,78853.525005,78853,2628.4333333333334,2628.99263975,78869.77919249999,78869,2628.9666666666667,2631.0233854999997,78930.701565,78930,2631.0,2.3215865818142447,3,1,5,2,1.0,1.0,b'HB_57_LongA.png',2633.344972081814,79000.34916245441,79000,2633.3333333333335
114,2633.349887,79000.49661,79000,2633.3333333333335,2634.01221025,79020.3663075,79020,2634.0,2636.04291625,79081.2874875,79081,2636.0333333333333,1.9238844560641155,2,2,7,2,2.0,3.0,b'SB_38_LongA.png',2637.966800706064,79139.00402118193,79139,2637.9666666666667
115,2637.990888,79139.72664,79139,2637.9666666666667,2638.593238,79157.79714,79157,2638.5666666666666,2640.624555,79218.73664999999,79218,2640.6,2.206387127479502,1,1,2,1,2.0,3.0,b'NB_12_LongA.png',2642.8309421274794,79284.92826382437,79284,2642.8
116,2642.8481417499997,79285.44425249999,79285,2642.8333333333335,2643.43004225,79302.9012675,79302,2643.4,2645.460741,79363.82222999999,79363,2645.4333333333334,2.144539503089163,2,2,7,2,2.0,3.0,b'SB_30_LongA.png',2647.605280503089,79428.15841509266,79428,2647.6
117,2647.610871,79428.32613,79428,2647.6,2648.2731045,79448.19313500001,79448,2648.266666666667,2650.30385425,79509.1156275,79509,2650.3,2.223779331697642,3,2,5,2,2.0,1.0,b'HB_33_LongA.png',2652.5276335816975,79575.82900745093,79575,2652.5
118,2652.5441339999998,79576.32402,79576,2652.5333333333333,2653.14615625,79594.3846875,79594,2653.133333333333,2655.17698225,79655.3094675,79655,2655.1666666666665,2.0366776013015624,2,1,2,1,2.0,3.0,b'SB_41_ShortA.png',2657.2136598513016,79716.40979553905,79716,2657.2
119,2657.225175,79716.75525,79716,2657.2,2657.80701775,79734.2105325,79734,2657.8,2659.83800625,79795.1401875,79795,2659.8333333333335,1.4670915638344013,2,2,2,1,1.0,3.0,b'SB_20_ShortA.png',2661.3050978138344,79839.15293441503,79839,2661.3
120,2661.32761875,79839.8285625,79839,2661.3,2661.9497134999997,79858.491405,79858,2661.9333333333334,2663.98070125,79919.4210375,79919,2663.9666666666667,1.7657703577492612,2,2,7,2,2.0,3.0,b'SB_55_ShortA.png',2665.7464716077493,79972.39414823247,79972,2665.733333333333
121,2665.763447,79972.90341,79972,2665.733333333333,2666.32548225,79989.76446749999,79989,2666.3,2668.356738,80050.70214,80050,2668.3333333333335,1.9416359937622474,1,1,2,1,2.0,3.0,b'NB_4_ShortA.png',2670.298373993762,80108.95121981287,80108,2670.266666666667
122,2670.3060567499997,80109.18170249999,80109,2670.3,2670.9282682499997,80127.8480475,80127,2670.9,2672.95897975,80188.76939249999,80188,2672.9333333333334,3.257266731047821,3,1,3,1,2.0,2.0,b'HB_23_LongA.png',2676.2162464810476,80286.48739443143,80286,2676.2
123,2676.24027725,80287.2083175,80287,2676.233333333333,2676.8623985,80305.871955,80305,2676.8333333333335,2678.8936949999998,80366.81085,80366,2678.866666666667,0.8192255989861223,3,1,5,2,1.0,1.0,b'HB_34_LongA.png',2679.712920598986,80391.38761796958,80391,2679.7
124,2679.7211565,80391.63469499999,80391,2679.7,2680.30326575,80409.09797249999,80409,2680.3,2682.3341109999997,80470.02333,80470,2682.3333333333335,2.2648984061679585,1,1,2,1,2.0,3.0,b'NB_17_LongA.png',2684.5990094061676,80537.97028218502,80537,2684.5666666666666
125,2684.60447325,80538.1341975,80538,2684.6,2685.2468059999997,80557.40417999998,80557,2685.233333333333,2687.27764425,80618.32932749999,80618,2687.266666666667,2.774874447025468,3,2,3,1,1.0,2.0,b'HB_44_LongA.png',2690.0525186970253,80701.57556091076,80701,2690.0333333333333
126,2690.075996,80702.27988,80702,2690.0666666666666,2690.71817525,80721.5452575,80721,2690.7,2692.7490465,80782.471395,80782,2692.733333333333,3.1041161082416693,2,1,6,2,1.0,2.0,b'SB_16_shortA.png',2695.8531626082417,80875.59487824726,80875,2695.8333333333335
127,2695.8769525,80876.30857499999,80876,2695.866666666667,2696.47904075,80894.3712225,80894,2696.4666666666667,2698.51046175,80955.3138525,80955,2698.5,2.405075882743404,3,2,6,2,2.0,2.0,b'HB_10_LongA.png',2700.9155376327435,81027.46612898231,81027,2700.9
128,2700.92987225,81027.89616749999,81027,2700.9,2701.5119354999997,81045.358065,81045,2701.5,2703.5432782499997,81106.2983475,81106,2703.5333333333333,1.2388933230472503,3,2,5,2,2.0,1.0,b'HB_16_ShortA.png',2704.782171573047,81143.46514719141,81143,2704.766666666667
129,2704.7924747499997,81143.77424249999,81143,2704.766666666667,2705.4145685,81162.437055,81162,2705.4,2707.445324,81223.35972,81223,2707.4333333333334,1.4652778158456385,1,1,2,1,2.0,3.0,b'NB_5_ShortA.png',2708.9106018158454,81267.31805447536,81267,2708.9
130,2708.92589625,81267.77688749999,81267,2708.9,2709.5280795,81285.842385,81285,2709.5,2711.5587742499997,81346.76322749999,81346,2711.5333333333333,2.74819044886317,1,1,2,1,2.0,3.0,b'NB_28_LongA.png',2714.306964698863,81429.20894096588,81429,2714.3
131,2714.325159,81429.75477,81429,2714.3,2714.9472565,81448.417695,81448,2714.9333333333334,2716.97857025,81509.35710749999,81509,2716.9666666666667,2.1190211767529945,2,2,7,2,2.0,3.0,b'SB_25_LongA.png',2719.097591426753,81572.92774280258,81572,2719.0666666666666
132,2719.1104445,81573.313335,81573,2719.1,2719.77269675,81593.1809025,81593,2719.766666666667,2721.8039985,81654.119955,81654,2721.8,2.3679366597239095,3,2,5,2,2.0,1.0,b'HB_17_ShortA.png',2724.171935159724,81725.15805479171,81725,2724.1666666666665
133,2724.176981,81725.30943000001,81725,2724.1666666666665,2724.8194787499997,81744.5843625,81744,2724.8,2726.85035725,81805.5107175,81805,2726.8333333333335,1.5302493757012599,1,1,7,2,1.0,3.0,b'NB_2_ShortA.png',2728.380606625701,81851.41819877103,81851,2728.366666666667
134,2728.4042775,81852.128325,81852,2728.4,2729.0265827499998,81870.7974825,81870,2729.0,2731.057256,81931.71768,81931,2731.0333333333333,2.2902972268143458,3,1,6,2,1.0,2.0,b'HB_58_LongA.png',2733.3475532268144,82000.42659680443,82000,2733.3333333333335
135,2733.355103,82000.65308999999,82000,2733.3333333333335,2733.99741175,82019.9223525,82019,2733.9666666666667,2736.028115,82080.84345,82080,2736.0,2.089577565676791,1,1,2,1,2.0,3.0,b'NB_9_LongA.png',2738.117692565677,82143.5307769703,82143,2738.1
136,2738.1368187499997,82144.1045625,82144,2738.133333333333,2738.6990057499997,82160.97017249999,82160,2738.6666666666665,2740.7297182499997,82221.8915475,82221,2740.7,1.655277559822025,2,1,3,1,2.0,2.0,b'SB_14_LongA.png',2742.3849958098217,82271.54987429465,82271,2742.366666666667
137,2742.3929104999997,82271.787315,82271,2742.366666666667,2743.0552795,82291.658385,82291,2743.0333333333333,2745.0860075,82352.580225,82352,2745.0666666666666,2.325328348650146,3,1,5,2,1.0,1.0,b'HB_60_LongA.png',2747.41133584865,82422.3400754595,82422,2747.4
138,2747.42991525,82422.89745749999,82422,2747.4,2748.07228325,82442.1684975,82442,2748.0666666666666,2750.10303975,82503.0911925,82503,2750.1,0.8973709099018379,1,2,2,1,1.0,3.0,b'NB_22_ShortA.png',2751.0004106599017,82530.01231979705,82530,2751.0
139,2751.0059335,82530.17800500001,82530,2751.0,2751.668386,82550.05158,82550,2751.6666666666665,2753.69968225,82610.9904675,82610,2753.6666666666665,2.8927614196177274,1,1,2,1,2.0,3.0,b'NB_15_ShortA.png',2756.5924436696178,82697.77331008854,82697,2756.5666666666666
140,2756.59731175,82697.9193525,82697,2756.5666666666666,2757.219338,82716.58013999999,82716,2757.2,2759.2506144999998,82777.51843499999,82777,2759.233333333333,2.814184304963419,3,2,3,1,1.0,2.0,b'HB_35_ShortA.png',2762.064798804963,82861.9439641489,82861,2762.0333333333333
141,2762.0751769999997,82862.25531,82862,2762.0666666666666,2762.657377,82879.72131,82879,2762.633333333333,2764.6880524999997,82940.64157499999,82940,2764.6666666666665,2.4689176902238614,1,1,2,1,2.0,3.0,b'NB_6_ShortA.png',2767.1569701902235,83014.7091057067,83014,2767.133333333333
142,2767.1641895,83014.925685,83014,2767.133333333333,2767.7261117499997,83031.78335249999,83031,2767.7,2769.7570782499997,83092.7123475,83092,2769.733333333333,2.357372905424654,3,1,6,2,1.0,2.0,b'HB_37_LongA.png',2772.1144511554244,83163.43353466273,83163,2772.1
143,2772.13271,83163.9813,83163,2772.1,2772.69459375,83180.8378125,83180,2772.6666666666665,2774.725442,83241.76325999999,83241,2774.7,1.560225831655771,1,1,2,1,2.0,3.0,b'NB_30_LongA.png',2776.2856678316557,83288.57003494968,83288,2776.266666666667
144,2776.301489,83289.04467,83289,2776.3,2776.943643,83308.30929,83308,2776.9333333333334,2778.97495675,83369.2487025,83369,2778.9666666666667,2.870477209159162,3,1,3,1,2.0,2.0,b'HB_11_ShortA.png',2781.845433959159,83455.36301877478,83455,2781.8333333333335
145,2781.85644775,83455.6934325,83455,2781.8333333333335,2782.49882275,83474.9646825,83474,2782.4666666666667,2784.530131,83535.90393,83535,2784.5,3.651411907140755,3,2,6,2,2.0,2.0,b'HB_27_ShortA.png',2788.1815429071407,83645.44628721422,83645,2788.1666666666665
146,2788.1952632499997,83645.85789749998,83645,2788.1666666666665,2788.777435,83663.32305,83663,2788.766666666667,2790.80822575,83724.2467725,83724,2790.8,1.0951788744937403,1,1,2,1,2.0,3.0,b'NB_1_ShortA.png',2791.9034046244938,83757.10213873482,83757,2791.9
147,2791.9185844999997,83757.55753499999,83757,2791.9,2792.5005484999997,83775.01645499999,83775,2792.5,2794.5311657499997,83835.93497249999,83835,2794.5,1.4984855856669128,1,2,7,2,2.0,3.0,b'NB_2_LongA.png',2796.0296513356666,83880.88954007,83880,2796.0
148,2796.04207225,83881.2621675,83881,2796.0333333333333,2796.62434675,83898.73040249999,83898,2796.6,2798.6556565,83959.669695,83959,2798.633333333333,1.8216124236787437,2,1,5,2,1.0,1.0,b'SB_1_ShortA.png',2800.477268923679,84014.31806771037,84014,2800.4666666666667
149,2800.4964215,84014.892645,84014,2800.4666666666667,2801.1387259999997,84034.16178,84034,2801.133333333333,2803.16945575,84095.0836725,84095,2803.1666666666665,2.87413026394006,3,1,5,2,1.0,1.0,b'HB_5_ShortA.png',2806.04358601394,84181.3075804182,84181,2806.0333333333333
150,2806.0589625,84181.768875,84181,2806.0333333333333,2806.68142,84200.4426,84200,2806.6666666666665,2808.712607,84261.37821,84261,2808.7,2.5009865120732684,2,2,7,2,2.0,3.0,b'SB_12_LongA.png',2811.213593512073,84336.40780536219,84336,2811.2
151,2811.22635675,84336.7907025,84336,2811.2,2811.86874425,84356.0623275,84356,2811.866666666667,2813.90004525,84417.0013575,84417,2813.9,2.1009123821122557,1,1,2,1,2.0,3.0,b'NB_9_ShortA.png',2816.000957632112,84480.02872896337,84480,2816.0
152,2816.0219817499997,84480.6594525,84480,2816.0,2816.6039419999997,84498.11825999999,84498,2816.6,2818.63466625,84559.0399875,84559,2818.633333333333,2.13821356840117,1,2,7,2,2.0,3.0,b'NB_20_LongA.png',2820.772879818401,84623.18639455203,84623,2820.766666666667
153,2820.792039,84623.76117,84623,2820.766666666667,2821.39406775,84641.8220325,84641,2821.366666666667,2823.4247855,84702.743565,84702,2823.4,2.2542168579916506,3,1,4,1,2.0,1.0,b'HB_48_ShortA.png',2825.6790023579915,84770.37007073975,84770,2825.6666666666665
154,2825.69948675,84770.98460249999,84770,2825.6666666666665,2826.321544,84789.64632,84789,2826.3,2828.3523215,84850.569645,84850,2828.3333333333335,1.8085345312301797,3,2,5,2,2.0,1.0,b'HB_49_LongA.png',2830.16085603123,84904.8256809369,84904,2830.133333333333
155,2830.18011825,84905.4035475,84905,2830.1666666666665,2830.802396,84924.07188,84924,2830.8,2832.83329825,84984.9989475,84984,2832.8,1.578075378435642,2,1,7,2,1.0,3.0,b'SB_32_ShortA.png',2834.4113736284357,85032.34120885307,85032,2834.4
156,2834.41630725,85032.4892175,85032,2834.4,2835.0587794999997,85051.76338499998,85051,2835.0333333333333,2837.089509,85112.68527,85112,2837.0666666666666,3.744632720316531,3,1,5,2,1.0,1.0,b'HB_13_ShortA.png',2840.8341417203164,85225.02425160949,85225,2840.8333333333335
157,2840.84663225,85225.39896749999,85225,2840.8333333333335,2841.408562,85242.25686000001,85242,2841.4,2843.4398874999997,85303.196625,85303,2843.4333333333334,2.056107965056526,3,2,4,1,1.0,1.0,b'HB_1_LongA.png',2845.4959954650562,85364.87986395169,85364,2845.4666666666667
158,2845.50175375,85365.05261249999,85365,2845.5,2846.14420075,85384.3260225,85384,2846.133333333333,2848.1755945,85445.267835,85445,2848.1666666666665,2.4138969290766,2,2,7,2,2.0,3.0,b'SB_45_LongA.png',2850.5894914290766,85517.6847428723,85517,2850.5666666666666
159,2850.6035405,85518.10621499999,85518,2850.6,2851.22565925,85536.7697775,85536,2851.2,2853.2569774999997,85597.70932499999,85597,2853.233333333333,3.142589859442978,3,2,4,1,1.0,1.0,b'HB_8_LongA.png',2856.3995673594427,85691.98702078329,85691,2856.366666666667
160,2856.4193422499998,85692.58026749999,85692,2856.4,2857.0412899999997,85711.23869999999,85711,2857.0333333333333,2859.0723715,85772.171145,85772,2859.0666666666666,2.3333380997223685,1,2,3,1,1.0,2.0,b'NB_14_LongA.png',2861.4057095997223,85842.17128799167,85842,2861.4
161,2861.415888,85842.47664,85842,2861.4,2861.9980204999997,85859.94061499998,85859,2861.9666666666667,2864.029353,85920.88059,85920,2864.0,1.360730023877295,1,2,6,2,2.0,2.0,b'NB_25_LongA.png',2865.390083023877,85961.70249071631,85961,2865.366666666667
162,2865.4118175,85962.354525,85962,2865.4,2866.01383575,85980.4150725,85980,2866.0,2868.0447535,86041.342605,86041,2868.0333333333333,2.995530816061091,3,1,5,2,1.0,1.0,b'HB_32_LongA.png',2871.040284316061,86131.20852948182,86131,2871.0333333333333
163,2871.0472434999997,86131.417305,86131,2871.0333333333333,2871.6891895,86150.675685,86150,2871.6666666666665,2873.7203369999997,86211.61011,86211,2873.7,2.859319765377677,3,1,4,1,2.0,1.0,b'HB_46_ShortA.png',2876.5796567653774,86297.38970296133,86297,2876.5666666666666
164,2876.59368925,86297.81067749999,86297,2876.5666666666666,2877.2358995,86317.07698499999,86317,2877.233333333333,2879.26720175,86378.0160525,86378,2879.266666666667,1.8310162227412548,1,2,6,2,2.0,2.0,b'NB_7_ShortA.png',2881.098217972741,86432.94653918223,86432,2881.0666666666666
165,2881.10983375,86433.29501249999,86433,2881.1,2881.73196525,86451.9589575,86451,2881.7,2883.7628957499996,86512.88687249999,86512,2883.733333333333,1.6650762448434762,1,2,6,2,2.0,2.0,b'NB_29_LongA.png',2885.427971994843,86562.83915984529,86562,2885.4
166,2885.4500955,86563.502865,86563,2885.4333333333334,2886.05232675,86581.56980249999,86581,2886.0333333333333,2888.0836719999998,86642.51015999999,86642,2888.0666666666666,1.2264715280925884,2,2,6,2,2.0,2.0,b'SB_26_ShortA.png',2889.3101435280923,86679.30430584277,86679,2889.3
167,2889.3193162499997,86679.57948749998,86679,2889.3,2889.96184625,86698.85538749999,86698,2889.9333333333334,2891.9923127499997,86759.76938249999,86759,2891.9666666666667,1.3096216659446327,1,2,6,2,2.0,2.0,b'NB_11_ShortA.png',2893.3019344159443,86799.05803247832,86799,2893.3
168,2893.3084805,86799.254415,86799,2893.3,2893.9506579999997,86818.51973999999,86818,2893.9333333333334,2895.9813462499997,86879.44038749998,86879,2895.9666666666667,2.642077879484077,3,1,4,1,2.0,1.0,b'HB_39_ShortA.png',2898.6234241294837,86958.70272388452,86958,2898.6
169,2898.64358425,86959.3075275,86959,2898.633333333333,2899.2656825,86977.970475,86977,2899.233333333333,2901.296457,87038.89371,87038,2901.266666666667,1.2932062406184741,2,2,6,2,2.0,2.0,b'SB_19_ShortA.png',2902.5896632406184,87077.68989721854,87077,2902.5666666666666
170,2902.603086,87078.09258,87078,2902.6,2903.22518375,87096.75551249999,87096,2903.2,2905.256019,87157.68057,87157,2905.233333333333,1.228207088578074,2,2,6,2,2.0,2.0,b'SB_37_LongA.png',2906.484226088578,87194.52678265734,87194,2906.4666666666667
171,2906.5082694999996,87195.24808499998,87195,2906.5,2907.11028725,87213.3086175,87213,2907.1,2909.1411532499997,87274.23459749999,87274,2909.133333333333,1.914173343891889,3,2,4,1,1.0,1.0,b'HB_43_LongA.png',2911.0553265938916,87331.65979781674,87331,2911.0333333333333
172,2911.0617239999997,87331.85171999999,87331,2911.0333333333333,2911.643898,87349.31693999999,87349,2911.633333333333,2913.67466475,87410.2399425,87410,2913.6666666666665,0.4928036754054119,2,1,2,1,2.0,3.0,b'SB_39_ShortA.png',2914.1674684254053,87425.02405276216,87425,2914.1666666666665
173,2914.17698075,87425.3094225,87425,2914.1666666666665,2914.83920725,87445.1762175,87445,2914.8333333333335,2916.86996275,87506.0988825,87506,2916.866666666667,2.461499553151498,1,1,6,2,1.0,2.0,b'NB_25_ShortA.png',2919.3314623031515,87579.94386909454,87579,2919.3
174,2919.3441924999997,87580.32577499999,87580,2919.3333333333335,2919.9662845,87598.988535,87598,2919.9333333333334,2921.996913,87659.90739,87659,2921.9666666666667,2.083585866469093,1,2,3,1,1.0,2.0,b'NB_21_ShortA.png',2924.080498866469,87722.41496599407,87722,2924.0666666666666
175,2924.0963065,87722.889195,87722,2924.0666666666666,2924.7387477499997,87742.16243249999,87742,2924.733333333333,2926.7700597499997,87803.10179249999,87803,2926.766666666667,2.842795536270387,2,1,2,1,2.0,3.0,b'SB_58_ShortA.png',2929.61285528627,87888.3856585881,87888,2929.6
176,2929.62790975,87888.8372925,87888,2929.6,2930.2700742499997,87908.10222749999,87908,2930.266666666667,2932.3006877499997,87969.02063249999,87969,2932.3,2.705391498571771,2,2,3,1,1.0,2.0,b'SB_2_LongA.png',2935.0060792485715,88050.18237745714,88050,2935.0
177,2935.02516175,88050.75485249999,88050,2935.0,2935.6675247499998,88070.02574249999,88070,2935.6666666666665,2937.6988595,88130.965785,88130,2937.6666666666665,2.93022224014112,3,1,4,1,2.0,1.0,b'HB_41_LongA.png',2940.629081740141,88218.87245220423,88218,2940.6
178,2940.6446645,88219.339935,88219,2940.633333333333,2941.2667429999997,88238.00228999999,88238,2941.266666666667,2943.29752625,88298.9257875,88298,2943.266666666667,2.2587127663314277,3,2,4,1,1.0,1.0,b'HB_3_ShortA.png',2945.5562390163313,88366.68717048994,88366,2945.5333333333333
179,2945.6015024999997,88368.04507499999,88368,2945.6,2946.23546525,88387.0639575,88387,2946.233333333333,2948.2991775,88448.975325,88448,2948.266666666667,1.3120502245919852,2,1,6,2,1.0,2.0,b'SB_30_ShortA.png',2949.611227724592,88488.33683173776,88488,2949.6
180,2949.68969575,88490.6908725,88490,2949.6666666666665,2950.23997,88507.1991,88507,2950.233333333333,2952.3118289999998,88569.35487,88569,2952.3,2.1898082084430825,2,2,2,1,1.0,3.0,b'SB_30_LongA.png',2954.501637208443,88635.04911625329,88635,2954.5
