trial_num,fixcross_time,fixation_HZ,fixation_bin,fixation_regarded,start_time,Fstart_HZ,Fstart_bin,Fstart_regarded,stop_time,Fstop_HZ,Fstop_bin,Fstop_regarded,RT,boundary_type,stimuli_type,resp_value,old_new,accuracy,confidence,frameName,response_time,response_HZ,response_bin,response_regarded
1,1464.3237494999998,43929.712485,43929,1464.3,1464.8069695,43944.209084999995,43944,1464.8,1466.3630739999999,43990.892219999994,43990,1466.3333333333333,1.2776178206840996,1,1,2,2,2,3,b'NB_14_frameA.png',1467.640691820684,44029.22075462052,44029,1467.6333333333334
2,1467.65442525,44029.6327575,44029,1467.6333333333334,1468.1376484999998,44044.129454999995,44044,1468.1333333333334,1469.671317,44090.13951,44090,1469.6666666666667,1.4100885809748434,2,0,5,1,2,1,b'SB_9_frameA_foil.png',1471.081405580975,44132.442167429246,44132,1471.0666666666666
3,1471.10292925,44133.0878775,44133,1471.1,1471.636156,44149.08468,44149,1471.6333333333334,1473.1700245,44195.100735,44195,1473.1666666666667,1.4188729385496117,3,0,5,1,2,1,b'HB_8_frameA_foil.png',1474.5888974385496,44237.66692315649,44237,1474.5666666666666
4,1474.60738475,44238.221542499996,44238,1474.6,1475.12394475,44253.7183425,44253,1475.1,1476.65763425,44299.7290275,44299,1476.6333333333334,1.5191912328009494,3,1,4,2,2,1,b'HB_4_frameA.png',1478.176825482801,44345.304764484026,44345,1478.1666666666667
5,1478.189913,44345.69739,44345,1478.1666666666667,1478.6397355,44359.192064999996,44359,1478.6333333333334,1480.1945222499999,44405.835667499996,44405,1480.1666666666667,1.2989361570216715,1,0,7,1,2,3,b'NB_4_frameB_foil.png',1481.4934584070215,44444.803752210646,44444,1481.4666666666667
6,1481.4984152499999,44444.952457499996,44444,1481.4666666666667,1482.03185425,44460.9556275,44460,1482.0,1483.56555025,44506.966507499994,44506,1483.5333333333333,1.3916491424897686,2,1,5,1,1,1,b'SB_1_frameA.png',1484.9571993924897,44548.71598177469,44548,1484.9333333333334
7,1484.9723844999999,44549.171534999994,44549,1484.9666666666667,1485.5222697499999,44565.6680925,44565,1485.5,1487.0563335,44611.690005,44611,1487.0333333333333,1.5985861438093707,3,0,4,2,1,1,b'HB_8_frameA_foil.png',1488.6549196438093,44659.64758931428,44659,1488.6333333333334
8,1488.671152,44660.13456,44660,1488.6666666666667,1489.2376995,44677.130984999996,44677,1489.2333333333333,1490.7714695,44723.144085,44723,1490.7666666666667,1.4198616589128505,1,0,7,1,2,3,b'NB_23_frameA_foil.png',1492.1913311589128,44765.739934767385,44765,1492.1666666666667
9,1492.2003702499999,44766.011107499995,44766,1492.2,1492.650281,44779.50843,44779,1492.6333333333334,1494.1839894999998,44825.51968499999,44825,1494.1666666666667,1.487661961466074,1,0,2,2,1,3,b'NB_17_frameA_foil.png',1495.671651461466,44870.149543843974,44870,1495.6666666666667
10,1495.6930069999999,44870.79020999999,44870,1495.6666666666667,1496.259566,44887.78698,44887,1496.2333333333333,1497.793974,44933.81922,44933,1497.7666666666667,1.5987527807010338,2,0,7,1,2,3,b'SB_4_frameA_foil.png',1499.392726780701,44981.78180342103,44981,1499.3666666666666
11,1499.4060915,44982.182745,44982,1499.4,1499.9393145,44998.179435,44998,1499.9333333333334,1501.4730319999999,45044.19095999999,45044,1501.4666666666667,1.3916908631217666,1,1,6,1,1,2,b'NB_9_frameB.png',1502.8647228631216,45085.941685893646,45085,1502.8333333333333
12,1502.8843015,45086.529045,45086,1502.8666666666666,1503.46752475,45104.0257425,45104,1503.4666666666667,1505.00125125,45150.0375375,45150,1505.0,1.5097054883372039,1,1,2,2,2,3,b'NB_21_frameB.png',1506.5109567383372,45195.32870215012,45195,1506.5
13,1506.51526025,45195.4578075,45195,1506.5,1506.965222,45208.95666,45208,1506.9333333333334,1508.499992,45254.99976,45254,1508.4666666666667,1.2667449189466424,3,0,6,1,2,2,b'HB_1_frameB_foil.png',1509.7667369189467,45293.0021075684,45293,1509.7666666666667
14,1509.7769664999998,45293.30899499999,45293,1509.7666666666667,1510.293528,45308.80584,45308,1510.2666666666667,1511.8270842499999,45354.8125275,45354,1511.8,1.2772655524022412,1,1,2,2,2,3,b'NB_27_frameB.png',1513.104349802402,45393.130494072066,45393,1513.1
15,1513.11982425,45393.5947275,45393,1513.1,1513.6530457499998,45409.59137249999,45409,1513.6333333333334,1515.187473,45455.62419,45455,1515.1666666666667,1.394298718922073,2,1,6,1,1,2,b'SB_9_frameB.png',1516.581771718922,45497.453151567664,45497,1516.5666666666666
16,1516.591254,45497.73762,45497,1516.5666666666666,1517.1244789999998,45513.73437,45513,1517.1,1518.6581234999999,45559.74370499999,45559,1518.6333333333334,1.4248659363365732,3,0,6,1,2,2,b'HB_1_frameA_foil.png',1520.0829894363364,45602.48968309009,45602,1520.0666666666666
17,1520.100995,45603.02985,45603,1520.1,1520.5508942499998,45616.5268275,45616,1520.5333333333333,1522.0847314999999,45662.541945,45662,1522.0666666666666,1.4091687288600951,1,0,7,1,2,3,b'NB_22_frameB_foil.png',1523.49390022886,45704.8170068658,45704,1523.4666666666667
18,1523.49629325,45704.8887975,45704,1523.4666666666667,1524.0294835,45720.884505,45720,1524.0,1525.56325125,45766.89753749999,45766,1525.5333333333333,1.0714776561362669,2,0,7,1,2,3,b'SB_1_frameA_foil.png',1526.6347289061362,45799.04186718408,45799,1526.6333333333334
19,1526.65495025,45799.6485075,45799,1526.6333333333334,1527.1048529999998,45813.14558999999,45813,1527.1,1528.6393967499998,45859.18190249999,45859,1528.6333333333334,1.3187865791551303,1,0,7,1,2,3,b'NB_10_frameB_foil.png',1529.958183329155,45898.74549987465,45898,1529.9333333333334
20,1529.9779535,45899.338605,45899,1529.9666666666667,1530.5111802499998,45915.335407499995,45915,1530.5,1532.04511275,45961.353382500005,45961,1532.0333333333333,1.3679046316829044,3,0,3,2,1,2,b'HB_3_frameB_foil.png',1533.413017381683,46002.39052145049,46002,1533.4
21,1533.4195685,46002.587054999996,46002,1533.4,1533.95278575,46018.5835725,46018,1533.9333333333334,1535.4868294999999,46064.60488499999,46064,1535.4666666666667,1.4696810923342127,3,0,5,1,2,1,b'HB_9_frameB_foil.png',1536.956510592334,46108.69531777002,46108,1536.9333333333334
22,1536.9596387499998,46108.7891625,46108,1536.9333333333334,1537.4762007499999,46124.2860225,46124,1537.4666666666667,1539.0112367499999,46170.337102499994,46170,1539.0,1.3642443448188715,2,0,7,1,2,3,b'SB_2_frameB_foil.png',1540.3754810948187,46211.26443284456,46211,1540.3666666666666
23,1540.3812512499999,46211.437537499995,46211,1540.3666666666666,1540.9144852499999,46227.4345575,46227,1540.9,1542.4484547499999,46273.4536425,46273,1542.4333333333334,1.4305805017938837,3,0,5,1,2,1,b'HB_3_frameA_foil.png',1543.8790352517938,46316.37105755381,46316,1543.8666666666666
24,1543.8940687499999,46316.822062499996,46316,1543.8666666666666,1544.3772995,46331.318985,46331,1544.3666666666666,1545.911237,46377.33711,46377,1545.9,1.2952342494972982,1,1,7,1,1,3,b'NB_15_frameB.png',1547.2064712494973,46416.19413748492,46416,1547.2
25,1547.2141944999998,46416.425834999995,46416,1547.2,1547.73075675,46431.9227025,46431,1547.7,1549.2647877499999,46477.9436325,46477,1549.2333333333333,1.351736702490598,3,1,6,1,1,2,b'HB_3_frameA.png',1550.6165244524905,46518.49573357472,46518,1550.6
26,1550.63284325,46518.985297499996,46518,1550.6,1551.16607275,46534.9821825,46534,1551.1333333333334,1552.6996725,46580.990175,46580,1552.6666666666667,1.1003155197540764,1,0,2,2,1,3,b'NB_21_frameA_foil.png',1553.799988019754,46613.99964059262,46613,1553.7666666666667
27,1553.81158575,46614.347572499995,46614,1553.8,1554.3280605,46629.841815,46629,1554.3,1555.86235175,46675.8705525,46675,1555.8333333333333,1.2249113095749635,3,1,3,2,2,2,b'HB_8_frameB.png',1557.087263059575,46712.617891787246,46712,1557.0666666666666
28,1557.09234875,46712.7704625,46712,1557.0666666666666,1557.6422539999999,46729.26762,46729,1557.6333333333334,1559.17647275,46775.294182499994,46775,1559.1666666666667,1.2866309579403605,3,0,5,1,2,1,b'HB_4_frameB_foil.png',1560.4631037079403,46813.893111238205,46813,1560.4333333333334
29,1560.47980775,46814.394232499995,46814,1560.4666666666667,1560.97970425,46829.3911275,46829,1560.9666666666667,1562.51312575,46875.3937725,46875,1562.5,1.453059588355245,1,1,2,2,2,3,b'NB_22_frameA.png',1563.9661853383552,46918.98556015066,46918,1563.9333333333334
30,1563.9695944999999,46919.087835,46919,1563.9666666666667,1564.53597625,46936.0792875,46936,1564.5333333333333,1566.06975025,46982.0925075,46982,1566.0666666666666,1.3498870061594062,3,0,6,1,2,2,b'HB_6_frameA_foil.png',1567.4196372561594,47022.58911768478,47022,1567.4
31,1567.43410875,47023.0232625,47023,1567.4333333333334,1567.9673384999999,47039.020155,47039,1567.9666666666667,1569.5009269999998,47085.02780999999,47085,1569.5,1.567241341312183,2,1,2,2,2,3,b'SB_8_frameA.png',1571.068168341312,47132.04505023936,47132,1571.0666666666666
32,1571.0852115,47132.556345,47132,1571.0666666666666,1571.5517694999999,47146.55308499999,47146,1571.5333333333333,1573.0857334999998,47192.572004999995,47192,1573.0666666666666,1.5750724902609363,2,0,7,1,2,3,b'SB_8_frameB_foil.png',1574.6608059902608,47239.82417970782,47239,1574.6333333333334
33,1574.671709,47240.15127,47240,1574.6666666666667,1575.17161425,47255.1484275,47255,1575.1666666666667,1576.7051795,47301.155385,47301,1576.7,1.4124150628922507,2,1,2,2,2,3,b'SB_1_frameA.png',1578.1175945628922,47343.527836886766,47343,1578.1
34,1578.1270882499998,47343.812647499995,47343,1578.1,1578.6436615,47359.309845,47359,1578.6333333333334,1580.1770239999998,47405.310719999994,47405,1580.1666666666667,1.076421331235906,2,0,3,2,1,2,b'SB_7_frameA_foil.png',1581.2534453312358,47437.60335993707,47437,1581.2333333333333
35,1581.2745435,47438.236305,47438,1581.2666666666667,1581.7910937499998,47453.7328125,47453,1581.7666666666667,1583.32484675,47499.7454025,47499,1583.3,1.5689860237762332,1,0,7,1,2,3,b'NB_16_frameB_foil.png',1584.8938327737762,47546.814983213284,47546,1584.8666666666666
36,1584.9112155,47547.336465,47547,1584.9,1585.4777705,47564.333114999994,47564,1585.4666666666667,1587.0112205,47610.336615,47610,1587.0,1.4259630437009037,1,0,7,1,2,3,b'NB_6_frameB_foil.png',1588.437183543701,47653.11550631103,47653,1588.4333333333334
37,1588.4476372499998,47653.429117499996,47653,1588.4333333333334,1588.99753825,47669.926147499995,47669,1588.9666666666667,1590.5320325,47715.960975,47715,1590.5,1.5171387695590965,1,0,7,1,2,3,b'NB_13_frameA_foil.png',1592.049171269559,47761.475138086775,47761,1592.0333333333333
38,1592.05523525,47761.65705749999,47761,1592.0333333333333,1592.5384609999999,47776.153829999996,47776,1592.5333333333333,1594.0729999999999,47822.189999999995,47822,1594.0666666666666,1.5551356377545744,2,0,6,1,2,2,b'SB_2_frameB_foil.png',1595.6281356377544,47868.84406913263,47868,1595.6
39,1595.6437079999998,47869.311239999995,47869,1595.6333333333334,1596.2102532499998,47886.307597499996,47886,1596.2,1597.74437475,47932.3312425,47932,1597.7333333333333,1.3801340145582799,1,0,7,1,2,3,b'NB_30_frameB_foil.png',1599.1245087645582,47973.735262936745,47973,1599.1
40,1599.1371434999999,47974.114304999996,47974,1599.1333333333334,1599.6536987499999,47989.610962499995,47989,1599.6333333333334,1601.1873134999998,48035.619405,48035,1601.1666666666667,1.3571535522933118,2,0,7,1,2,3,b'SB_8_frameA_foil.png',1602.5444670522932,48076.3340115688,48076,1602.5333333333333
41,1602.55161725,48076.5485175,48076,1602.5333333333333,1603.0848442499998,48092.545327499996,48092,1603.0666666666666,1604.61930525,48138.579157500004,48138,1604.6,1.3999263752484694,2,1,7,1,1,3,b'SB_6_frameA.png',1606.0192316252485,48180.57694875746,48180,1606.0
42,1606.0251385,48180.754154999995,48180,1606.0,1606.508284,48195.24852,48195,1606.5,1608.04282425,48241.2847275,48241,1608.0333333333333,1.2460353142523672,1,1,2,2,2,3,b'NB_12_frameA.png',1609.2888595642523,48278.66578692757,48278,1609.2666666666667
43,1609.3074185,48279.222555,48279,1609.3,1609.7906775,48293.720324999995,48293,1609.7666666666667,1611.32436625,48339.7309875,48339,1611.3,1.5868501605873462,2,1,7,1,1,3,b'SB_1_frameB.png',1612.9112164105873,48387.33649231762,48387,1612.9
44,1612.9184962499999,48387.554887499995,48387,1612.9,1613.4350674999998,48403.052025,48403,1613.4333333333334,1614.9696904999998,48449.090715,48449,1614.9666666666667,1.2832621977140661,1,1,7,1,1,3,b'NB_23_frameB.png',1616.252952697714,48487.58858093142,48487,1616.2333333333333
45,1616.269492,48488.08476,48488,1616.2666666666667,1616.7857932499999,48503.573797499994,48503,1616.7666666666667,1618.3205512499999,48549.6165375,48549,1618.3,1.4361079903610516,2,0,7,1,2,3,b'SB_3_frameB_foil.png',1619.756659240361,48592.69977721083,48592,1619.7333333333333
46,1619.76843975,48593.053192499996,48593,1619.7666666666667,1620.2183404999998,48606.550214999996,48606,1620.2,1621.7517002499999,48652.5510075,48652,1621.7333333333333,1.2905220618413296,1,1,2,2,2,3,b'NB_3_frameB.png',1623.0422223118412,48691.26666935524,48691,1623.0333333333333
47,1623.055237,48691.65711,48691,1623.0333333333333,1623.55513,48706.6539,48706,1623.5333333333333,1625.0885389999999,48752.656169999995,48752,1625.0666666666666,0.7283155278128106,2,1,2,2,2,3,b'SB_2_frameB.png',1625.8168545278127,48774.50563583438,48774,1625.8
48,1625.83303275,48774.9909825,48774,1625.8,1626.3329187499999,48789.9875625,48789,1626.3,1627.8673764999999,48836.021295,48836,1627.8666666666666,1.38451360311592,3,0,6,1,2,2,b'HB_7_frameA_foil.png',1629.2518901031158,48877.556703093476,48877,1629.2333333333333
49,1629.268259,48878.04777,48878,1629.2666666666667,1629.8014812499998,48894.04443749999,48894,1629.8,1631.33517325,48940.0551975,48940,1631.3333333333333,1.4886480594868772,1,1,2,2,2,3,b'NB_7_frameB.png',1632.823821309487,48984.714639284604,48984,1632.8
50,1632.84267875,48985.2803625,48985,1632.8333333333333,1633.3425785,49000.277355,49000,1633.3333333333333,1634.8759595,49046.278784999995,49046,1634.8666666666666,1.3240420015354175,1,1,2,2,2,3,b'NB_6_frameA.png',1636.2000015015353,49086.00004504606,49086,1636.2
51,1636.20844475,49086.2533425,49086,1636.2,1636.758314,49102.74942,49102,1636.7333333333333,1638.2927687499998,49148.78306249999,49148,1638.2666666666667,1.5353690976044163,3,1,3,2,2,2,b'HB_9_frameB.png',1639.8281378476042,49194.844135428124,49194,1639.8
52,1639.8327299999999,49194.9819,49194,1639.8,1640.29931575,49208.9794725,49208,1640.2666666666667,1641.833087,49254.99261,49254,1641.8,1.0815238362411037,2,0,7,1,2,3,b'SB_5_frameB_foil.png',1642.914610836241,49287.438325087234,49287,1642.9
53,1642.9336194999998,49288.008584999996,49288,1642.9333333333334,1643.4168645,49302.505935,49302,1643.4,1644.950959,49348.52877,49348,1644.9333333333334,1.3511180807254277,3,1,3,2,2,2,b'HB_3_frameA.png',1646.3020770807254,49389.06231242176,49389,1646.3
54,1646.31839625,49389.5518875,49389,1646.3,1646.88493675,49406.5481025,49406,1646.8666666666666,1648.418354,49452.550619999995,49452,1648.4,1.451720577722881,3,0,6,1,2,2,b'HB_5_frameB_foil.png',1649.8700745777228,49496.10223733168,49496,1649.8666666666666
55,1649.88591825,49496.5775475,49496,1649.8666666666666,1650.3858185,49511.574555,49511,1650.3666666666666,1651.9192415,49557.577245,49557,1651.9,1.5072763853240758,3,1,3,2,2,2,b'HB_3_frameB.png',1653.426517885324,49602.79553655972,49602,1653.4
56,1653.4415152499998,49603.245457499994,49603,1653.4333333333334,1653.9580792499999,49618.7423775,49618,1653.9333333333334,1655.49213375,49664.7640125,49664,1655.4666666666667,1.383510075713275,1,0,2,2,1,3,b'NB_28_frameB_foil.png',1656.8756438257133,49706.2693147714,49706,1656.8666666666666
57,1656.8857577499998,49706.5727325,49706,1656.8666666666666,1657.4023224999999,49722.069675,49722,1657.4,1658.935967,49768.079009999994,49768,1658.9333333333334,1.2353514102578629,1,0,2,2,1,3,b'NB_5_frameA_foil.png',1660.1713184102578,49805.13955230773,49805,1660.1666666666667
58,1660.1886742499998,49805.6602275,49805,1660.1666666666667,1660.73855925,49822.1567775,49822,1660.7333333333333,1662.2720777499999,49868.1623325,49868,1662.2666666666667,1.2249241860990878,2,1,2,2,2,3,b'SB_7_frameA.png',1663.497001936099,49904.91005808297,49904,1663.4666666666667
59,1663.51422325,49905.4266975,49905,1663.5,1664.0641087499998,49921.92326249999,49921,1664.0333333333333,1665.5978504999998,49967.935515,49967,1665.5666666666666,1.437111038423609,3,1,3,2,2,2,b'HB_2_frameA.png',1667.0349615384234,50011.048846152706,50011,1667.0333333333333
60,1667.04556975,50011.3670925,50011,1667.0333333333333,1667.51213575,50025.3640725,50025,1667.5,1669.047009,50071.41026999999,50071,1669.0333333333333,1.145430410571862,2,0,2,2,1,3,b'SB_1_frameB_foil.png',1670.1924394105718,50105.77318231715,50105,1670.1666666666667
61,1670.1982014999999,50105.946045,50105,1670.1666666666667,1670.6980932499998,50120.94279749999,50120,1670.6666666666667,1672.23225775,50166.967732499994,50166,1672.2,1.3933325065590907,2,1,2,2,2,3,b'SB_2_frameA.png',1673.625590256559,50208.76770769677,50208,1673.6
62,1673.6393495,50209.180485,50209,1673.6333333333334,1674.1392375,50224.177125,50224,1674.1333333333334,1675.6739377499998,50270.2181325,50270,1675.6666666666667,1.354961091914447,1,0,7,1,2,3,b'NB_25_frameA_foil.png',1677.0288988419143,50310.86696525743,50310,1677.0
63,1677.0309754999998,50310.929265,50310,1677.0,1677.48113875,50324.434162499994,50324,1677.4666666666667,1679.01489875,50370.4469625,50370,1679.0,1.4218256107124034,3,1,3,2,2,2,b'HB_1_frameB.png',1680.4367243607123,50413.10173082137,50413,1680.4333333333334
64,1680.4450135,50413.350405,50413,1680.4333333333334,1680.96156525,50428.8469575,50428,1680.9333333333334,1682.4961732499999,50474.88519749999,50474,1682.4666666666667,1.3494553911150433,3,0,4,2,1,1,b'HB_5_frameB_foil.png',1683.845628641115,50515.368859233444,50515,1683.8333333333333
65,1683.851772,50515.553159999996,50515,1683.8333333333333,1684.3349879999998,50530.04964,50530,1684.3333333333333,1685.868534,50576.056019999996,50576,1685.8666666666666,1.2049084671307355,1,0,7,1,2,3,b'NB_11_frameA_foil.png',1687.0734424671307,50612.20327401392,50612,1687.0666666666666
66,1687.0786437499999,50612.3593125,50612,1687.0666666666666,1687.5952095,50627.856285,50627,1687.5666666666666,1689.12938825,50673.8816475,50673,1689.1,1.500562934379559,3,1,3,2,2,2,b'HB_1_frameB.png',1690.6299511843795,50718.898535531385,50718,1690.6
67,1690.64014925,50719.204477499996,50719,1690.6333333333334,1691.1733737499999,50735.2012125,50735,1691.1666666666667,1692.7074215,50781.222645,50781,1692.7,1.5825033721048385,3,1,3,2,2,2,b'HB_2_frameB.png',1694.2899248721048,50828.69774616315,50828,1694.2666666666667
68,1694.3063802499998,50829.191407499995,50829,1694.3,1694.8562702499999,50845.6881075,50845,1694.8333333333333,1696.3903745,50891.711235,50891,1696.3666666666666,1.3009473538259044,1,0,7,1,2,3,b'NB_7_frameA_foil.png',1697.691321853826,50930.73965561478,50930,1697.6666666666667
69,1697.7136182499999,50931.408547499996,50931,1697.7,1698.26337,50947.901099999995,50947,1698.2333333333333,1699.7970022499999,50993.91006749999,50993,1699.7666666666667,1.3930743598029949,2,1,2,2,2,3,b'SB_4_frameB.png',1701.1900766098029,51035.70229829408,51035,1701.1666666666667
70,1701.20305725,51036.0917175,51036,1701.2,1701.66963175,51050.0889525,51050,1701.6666666666667,1703.20305375,51096.0916125,51096,1703.2,1.2480705242487602,2,1,2,2,2,3,b'SB_5_frameA.png',1704.4511242742487,51133.53372822746,51133,1704.4333333333334
71,1704.459367,51133.78101,51133,1704.4333333333334,1704.925931,51147.77793,51147,1704.9,1706.460552,51193.81656,51193,1706.4333333333334,1.567664163565496,2,1,2,2,2,3,b'SB_7_frameB.png',1708.0282161635655,51240.846484906964,51240,1708.0
72,1708.0333779999999,51241.001339999995,51241,1708.0333333333333,1708.54994825,51256.498447499995,51256,1708.5333333333333,1710.0838577499999,51302.5157325,51302,1710.0666666666666,1.4624930858553853,3,0,6,1,2,2,b'HB_1_frameA_foil.png',1711.5463508358553,51346.39052507566,51346,1711.5333333333333
73,1711.553565,51346.60695,51346,1711.5333333333333,1712.0034785,51360.104355,51360,1712.0,1713.53797625,51406.139287499995,51406,1713.5333333333333,1.4449846745992545,3,1,3,2,2,2,b'HB_6_frameB.png',1714.9829609245992,51449.48882773797,51449,1714.9666666666667
74,1714.9894387499999,51449.6831625,51449,1714.9666666666667,1715.522667,51465.68001,51465,1715.5,1717.0563017499999,51511.6890525,51511,1717.0333333333333,1.4529878410103265,1,1,7,1,1,3,b'NB_30_frameA.png',1718.5092895910102,51555.27868773031,51555,1718.5
75,1718.52307625,51555.6922875,51555,1718.5,1719.0229634999998,51570.688904999995,51570,1719.0,1720.55737525,51616.7212575,51616,1720.5333333333333,1.4374968367919791,3,1,5,1,1,1,b'HB_8_frameB.png',1721.994872086792,51659.84616260376,51659,1721.9666666666667
76,1722.006699,51660.20097,51660,1722.0,1722.52326,51675.697799999994,51675,1722.5,1724.0574809999998,51721.724429999995,51721,1724.0333333333333,1.2317749921348877,2,0,6,1,2,2,b'SB_6_frameB_foil.png',1725.2892559921347,51758.67767976404,51758,1725.2666666666667
77,1725.2996167499998,51758.9885025,51758,1725.2666666666667,1725.78284825,51773.485447499996,51773,1725.7666666666667,1727.317217,51819.51651,51819,1727.3,1.3077006021048874,2,1,7,1,1,3,b'SB_6_frameB.png',1728.624917602105,51858.74752806315,51858,1728.6
78,1728.6386054999998,51859.15816499999,51859,1728.6333333333334,1729.17181425,51875.1544275,51875,1729.1666666666667,1730.7052019999999,51921.156059999994,51921,1730.7,1.5206207477313,3,0,6,1,2,2,b'HB_4_frameA_foil.png',1732.2258227477312,51966.77468243193,51966,1732.2
79,1732.2445397499998,51967.33619249999,51967,1732.2333333333333,1732.76102675,51982.8308025,51982,1732.7333333333333,1734.2957757499998,52028.87327249999,52028,1734.2666666666667,1.3785608261532616,3,0,5,1,2,1,b'HB_6_frameB_foil.png',1735.674336576153,52070.23009728459,52070,1735.6666666666667
80,1735.681341,52070.44023,52070,1735.6666666666667,1736.1478957499999,52084.436872499995,52084,1736.1333333333334,1737.6813224999999,52130.439674999994,52130,1737.6666666666667,1.5518054199346807,1,1,7,1,1,3,b'NB_8_frameA.png',1739.2331279199345,52176.993837598035,52176,1739.2
81,1739.24384075,52177.315222499994,52177,1739.2333333333333,1739.710408,52191.31224,52191,1739.7,1741.2448445,52237.345335,52237,1741.2333333333333,1.252486369223334,2,1,2,2,2,3,b'SB_1_frameA.png',1742.4973308692233,52274.9199260767,52274,1742.4666666666667
82,1742.5077695,52275.233085,52275,1742.5,1742.99100325,52289.730097499996,52289,1742.9666666666667,1744.5243302499998,52335.7299075,52335,1744.5,1.4244862937775906,1,1,2,2,2,3,b'NB_4_frameA.png',1745.9488165437774,52378.464496313325,52378,1745.9333333333334
83,1745.96655575,52378.9966725,52378,1745.9333333333334,1746.4997839999999,52394.993519999996,52394,1746.4666666666667,1748.03420325,52441.0260975,52441,1748.0333333333333,1.3841128602798562,1,1,6,1,1,2,b'NB_24_frameA.png',1749.4183161102799,52482.549483308394,52482,1749.4
84,1749.42542175,52482.7626525,52482,1749.4,1749.94197775,52498.2593325,52498,1749.9333333333334,1751.4763695,52544.291085,52544,1751.4666666666667,1.4856200728972908,1,0,6,1,2,2,b'NB_19_frameA_foil.png',1752.9619895728972,52588.859687186916,52588,1752.9333333333334
85,1752.97554975,52589.2664925,52589,1752.9666666666667,1753.4587944999998,52603.763835,52603,1753.4333333333334,1754.99279725,52649.7839175,52649,1754.9666666666667,1.4497146436478943,1,0,7,1,2,3,b'NB_29_frameA_foil.png',1756.4425118936479,52693.275356809434,52693,1756.4333333333334
86,1756.44945225,52693.4835675,52693,1756.4333333333334,1756.9660167499999,52708.980502499995,52708,1756.9333333333334,1758.5003915,52755.011744999996,52755,1758.5,1.213178212288767,2,0,6,1,2,2,b'SB_5_frameB_foil.png',1759.7135697122887,52791.40709136866,52791,1759.7
87,1759.71848775,52791.554632499996,52791,1759.7,1760.2517042499999,52807.551127499995,52807,1760.2333333333333,1761.7850482499998,52853.551447499995,52853,1761.7666666666667,1.3763716020912398,2,1,6,1,1,2,b'SB_2_frameA.png',1763.161419852091,52894.84259556273,52894,1763.1333333333334
88,1763.1662655,52894.987965,52894,1763.1333333333334,1763.6661649999999,52909.98495,52909,1763.6333333333334,1765.20024975,52956.0074925,52956,1765.2,1.3596919330011588,3,0,2,2,1,3,b'HB_4_frameA_foil.png',1766.5599416830012,52996.798250490036,52996,1766.5333333333333
89,1766.56940625,52997.0821875,52997,1766.5666666666666,1767.0525719999998,53011.57715999999,53011,1767.0333333333333,1768.58597775,53057.5793325,53057,1768.5666666666666,1.119315357384039,1,1,2,2,2,3,b'NB_29_frameB.png',1769.705293107384,53091.15879322152,53091,1769.7
90,1769.723994,53091.71982,53091,1769.7,1770.20723675,53106.2171025,53106,1770.2,1771.7405505,53152.216515,53152,1771.7333333333333,1.4683553687063977,3,1,2,2,2,3,b'HB_4_frameB.png',1773.2089058687063,53196.26717606119,53196,1773.2
91,1773.21490525,53196.4471575,53196,1773.2,1773.68147925,53210.444377499996,53210,1773.6666666666667,1775.2149897499999,53256.4496925,53256,1775.2,1.1277804101991933,2,1,6,1,1,2,b'SB_4_frameA.png',1776.342770160199,53290.283104805974,53290,1776.3333333333333
92,1776.3566145,53290.698435,53290,1776.3333333333333,1776.8230589999998,53304.69177,53304,1776.8,1778.3566477499999,53350.6994325,53350,1778.3333333333333,1.3134318494412582,2,0,6,1,2,2,b'SB_6_frameA_foil.png',1779.6700795994411,53390.102387983236,53390,1779.6666666666667
93,1779.68533875,53390.5601625,53390,1779.6666666666667,1780.1352494999999,53404.057485,53404,1780.1333333333334,1781.6685125,53450.055374999996,53450,1781.6666666666667,1.5094731861317996,2,0,7,1,2,3,b'SB_6_frameA_foil.png',1783.1779856861317,53495.33957058395,53495,1783.1666666666667
94,1783.190234,53495.707019999994,53495,1783.1666666666667,1783.6903782499999,53510.71134749999,53510,1783.6666666666667,1785.223702,53556.71106,53556,1785.2,1.5066344085498713,2,1,2,2,2,3,b'SB_4_frameB.png',1786.7303364085499,53601.9100922565,53601,1786.7
95,1786.74147275,53602.2441825,53602,1786.7333333333333,1787.241348,53617.24044,53617,1787.2333333333333,1788.77466525,53663.2399575,53663,1788.7666666666667,1.187675545050297,1,1,6,1,1,2,b'NB_11_frameB.png',1789.9623407950503,53698.87022385151,53698,1789.9333333333334
96,1789.9762355,53699.287065000004,53699,1789.9666666666667,1790.4261064999998,53712.783194999996,53712,1790.4,1791.9594885,53758.784654999996,53758,1791.9333333333334,1.3811020161083434,3,0,2,2,1,3,b'HB_1_frameA_foil.png',1793.3405905161083,53800.217715483246,53800,1793.3333333333333
97,1793.35617675,53800.6853025,53800,1793.3333333333333,1793.8727245,53816.181735,53816,1793.8666666666666,1795.40609075,53862.1827225,53862,1795.4,1.0330777700000908,2,1,2,2,2,3,b'SB_1_frameB.png',1796.43916852,53893.175055600004,53893,1796.4333333333334
98,1796.4521687499998,53893.5650625,53893,1796.4333333333334,1796.9853799999999,53909.5614,53909,1796.9666666666667,1798.5187564999999,53955.56269499999,53955,1798.5,1.2873303031665273,1,0,6,1,2,2,b'NB_9_frameA_foil.png',1799.8060868031664,53994.18260409499,53994,1799.8
99,1799.8216135,53994.648405,53994,1799.8,1800.33819025,54010.1457075,54010,1800.3333333333333,1801.871573,54056.147189999996,54056,1801.8666666666666,1.5058193036529701,3,1,2,2,2,3,b'HB_1_frameA.png',1803.3773923036529,54101.321769109585,54101,1803.3666666666666
100,1803.38261275,54101.4783825,54101,1803.3666666666666,1803.832516,54114.97548,54114,1803.8,1805.366112,54160.98336,54160,1805.3333333333333,1.2831439742294606,1,1,2,2,2,3,b'NB_20_frameA.png',1806.6492559742294,54199.47767922688,54199,1806.6333333333334
101,1806.6576802499999,54199.7304075,54199,1806.6333333333334,1807.157555,54214.72665,54214,1807.1333333333334,1808.69094075,54260.7282225,54260,1808.6666666666667,1.4367878795601428,2,0,6,1,2,2,b'SB_1_frameB_foil.png',1810.1277286295601,54303.831858886806,54303,1810.1
102,1810.131391,54303.94173,54303,1810.1,1810.64785125,54319.4355375,54319,1810.6333333333334,1812.1816425,54365.449275,54365,1812.1666666666667,1.2884157261869404,2,0,2,2,1,3,b'SB_7_frameB_foil.png',1813.470058226187,54404.10174678561,54404,1813.4666666666667
103,1813.4876084999999,54404.628254999996,54404,1813.4666666666667,1814.03750775,54421.1252325,54421,1814.0333333333333,1815.5710394999999,54467.131185,54467,1815.5666666666666,1.2606433329347055,3,1,2,2,2,3,b'HB_7_frameA.png',1816.8316828329346,54504.95048498804,54504,1816.8
104,1816.84870775,54505.4612325,54505,1816.8333333333333,1817.364961,54520.94883,54520,1817.3333333333333,1818.89893425,54566.9680275,54566,1818.8666666666666,1.2075746512564365,1,1,6,1,1,2,b'NB_5_frameB.png',1820.1065089012563,54603.19526703769,54603,1820.1
105,1820.1199365,54603.598095,54603,1820.1,1820.6031644999998,54618.094934999994,54618,1820.6,1822.1365779999999,54664.09733999999,54664,1822.1333333333334,1.551045639847871,3,0,2,2,1,3,b'HB_7_frameB_foil.png',1823.6876236398477,54710.62870919543,54710,1823.6666666666667
106,1823.6935744999998,54710.80723499999,54710,1823.6666666666667,1824.16011375,54724.8034125,54724,1824.1333333333334,1825.69359025,54770.8077075,54770,1825.6666666666667,1.3369585613254458,3,1,7,1,1,3,b'HB_5_frameA.png',1827.0305488113254,54810.91646433976,54810,1827.0
107,1827.0488452499999,54811.4653575,54811,1827.0333333333333,1827.4987505,54824.962515,54824,1827.4666666666667,1829.03231425,54870.9694275,54870,1829.0,1.437827766785631,3,0,6,1,2,2,b'HB_2_frameB_foil.png',1830.4701420167855,54914.10426050357,54914,1830.4666666666667
108,1830.4791794999999,54914.375385,54914,1830.4666666666667,1830.99572775,54929.8718325,54929,1830.9666666666667,1832.5292762499998,54975.878287499996,54975,1832.5,1.3034610426111612,1,0,2,2,1,3,b'NB_1_frameA_foil.png',1833.832737292611,55014.98211877833,55014,1833.8
109,1833.8355467499998,55015.06640249999,55015,1833.8333333333333,1834.3187775,55029.563324999996,55029,1834.3,1835.852248,55075.56744,55075,1835.8333333333333,1.3643040189926978,3,1,2,2,2,3,b'HB_2_frameA.png',1837.2165520189926,55116.49656056978,55116,1837.2
110,1837.22789825,55116.8369475,55116,1837.2,1837.71113,55131.3339,55131,1837.7,1839.2444592499999,55177.333777499996,55177,1839.2333333333333,1.4872670644836035,3,1,2,2,2,3,b'HB_9_frameA.png',1840.7317263144835,55221.951789434504,55221,1840.7
111,1840.7367239999999,55222.10172,55222,1840.7333333333333,1841.23660875,55237.098262499996,55237,1841.2333333333333,1842.770206,55283.106179999995,55283,1842.7666666666667,1.2654697017860599,3,1,2,2,2,3,b'HB_2_frameA.png',1844.035675701786,55321.07027105358,55321,1844.0333333333333
112,1844.0532739999999,55321.59822,55321,1844.0333333333333,1844.569822,55337.094659999995,55337,1844.5666666666666,1846.103151,55383.09453,55383,1846.1,1.4443063361977693,2,0,6,1,2,2,b'SB_5_frameA_foil.png',1847.5474573361978,55426.423720085935,55426,1847.5333333333333
113,1847.5641815,55426.925445,55426,1847.5333333333333,1848.047407,55441.422210000004,55441,1848.0333333333333,1849.5807195,55487.421585,55487,1849.5666666666666,1.3019181102572475,3,1,2,2,2,3,b'HB_1_frameB.png',1850.8826376102572,55526.479128307714,55526,1850.8666666666666
114,1850.8986054999998,55526.958165,55526,1850.8666666666666,1851.3652009999998,55540.956029999994,55540,1851.3333333333333,1852.898469,55586.95407,55586,1852.8666666666666,1.5828949559945613,3,0,3,2,1,2,b'HB_6_frameB_foil.png',1854.4813639559945,55634.44091867984,55634,1854.4666666666667
115,1854.4885224999998,55634.655674999995,55634,1854.4666666666667,1855.0050864999998,55650.15259499999,55650,1855.0,1856.5383997499998,55696.151992499996,55696,1856.5333333333333,1.2771568502066657,1,0,6,1,2,2,b'NB_8_frameB_foil.png',1857.8155566002065,55734.466698006196,55734,1857.8
116,1857.8192057499998,55734.5761725,55734,1857.8,1858.285772,55748.57316,55748,1858.2666666666667,1859.8190825,55794.572475,55794,1859.8,1.4884239792008884,1,1,2,2,2,3,b'NB_26_frameA.png',1861.3075064792008,55839.22519437603,55839,1861.3
117,1861.31109025,55839.3327075,55839,1861.3,1861.77767325,55853.3301975,55853,1861.7666666666667,1863.3111509999999,55899.33452999999,55899,1863.3,1.3114833779691253,3,0,2,2,1,3,b'HB_1_frameA_foil.png',1864.622634377969,55938.67903133907,55938,1864.6
118,1864.6248974999999,55938.746925,55938,1864.6,1865.0748107499999,55952.244322499995,55952,1865.0666666666666,1866.60849425,55998.2548275,55998,1866.6,1.310562045808183,1,0,6,1,2,2,b'NB_12_frameB_foil.png',1867.919056295808,56037.571688874246,56037,1867.9
119,1867.9215837499999,56037.64751249999,56037,1867.9,1868.471586,56054.14758,56054,1868.4666666666667,1870.0049999999999,56100.149999999994,56100,1870.0,1.3403158632281702,3,1,2,2,2,3,b'HB_1_frameB.png',1871.345315863228,56140.35947589684,56140,1871.3333333333333
120,1871.34730475,56140.419142499995,56140,1871.3333333333333,1871.81412675,56154.4238025,56154,1871.8,1873.34737625,56200.4212875,56200,1873.3333333333333,1.241293223662069,1,0,7,1,2,3,b'NB_18_frameB_foil.png',1874.588669473662,56237.66008420986,56237,1874.5666666666666
121,1874.603651,56238.109529999994,56238,1874.6,1875.0702127499999,56252.106382499995,56252,1875.0666666666666,1876.6035694999998,56298.107084999996,56298,1876.6,1.3965333669621032,2,1,2,2,2,3,b'SB_2_frameA.png',1878.000102866962,56340.00308600886,56340,1878.0
122,1878.01216475,56340.364942500004,56340,1878.0,1878.54539125,56356.361737499996,56356,1878.5333333333333,1880.0787162499998,56402.3614875,56402,1880.0666666666666,1.4194858447590377,3,1,3,2,2,2,b'HB_5_frameA.png',1881.4982020947589,56444.94606284277,56444,1881.4666666666667
123,1881.5133185,56445.399554999996,56445,1881.5,1881.9798979999998,56459.39693999999,56459,1881.9666666666667,1883.5132442499998,56505.397327499995,56505,1883.5,1.329872314381646,3,1,5,1,1,1,b'HB_7_frameB.png',1884.8431165643815,56545.293496931445,56545,1884.8333333333333
124,1884.85706175,56545.7118525,56545,1884.8333333333333,1885.3236339999999,56559.709019999995,56559,1885.3,1886.85716,56605.7148,56605,1886.8333333333333,1.3127646240754984,2,0,7,1,2,3,b'SB_2_frameB_foil.png',1888.1699246240755,56645.09773872227,56645,1888.1666666666667
125,1888.1822475,56645.467424999995,56645,1888.1666666666667,1888.71544725,56661.463417499996,56661,1888.7,1890.2488079999998,56707.464239999994,56707,1890.2333333333333,1.3307079589867499,1,1,3,2,2,2,b'NB_18_frameA.png',1891.5795159589866,56747.3854787696,56747,1891.5666666666666
126,1891.59371375,56747.8114125,56747,1891.5666666666666,1892.1269364999998,56763.80809499999,56763,1892.1,1893.6603185,56809.809555,56809,1893.6333333333334,1.3027628050476778,1,1,2,2,2,3,b'NB_16_frameA.png',1894.9630813050476,56848.89243915143,56848,1894.9333333333334
127,1894.97717425,56849.315227499996,56849,1894.9666666666667,1895.4270797499998,56862.812392499996,56862,1895.4,1896.96045175,56908.813552499996,56908,1896.9333333333334,1.364715090196114,2,1,2,2,2,3,b'SB_9_frameA.png',1898.325166840196,56949.75500520588,56949,1898.3
128,1898.34117025,56950.2351075,56950,1898.3333333333333,1898.7910734999998,56963.73220499999,56963,1898.7666666666667,1900.32450825,57009.7352475,57009,1900.3,1.428268949384801,3,1,3,2,2,2,b'HB_2_frameA.png',1901.7527771993848,57052.583315981545,57052,1901.7333333333333
129,1901.7704362499999,57053.113087499994,57053,1901.7666666666667,1902.2203645,57066.610935,57066,1902.2,1903.75363075,57112.608922499996,57112,1903.7333333333333,1.5353881351475138,3,0,3,2,1,2,b'HB_3_frameB_foil.png',1905.2890188851475,57158.67056655442,57158,1905.2666666666667
130,1905.3019514999999,57159.05854499999,57159,1905.3,1905.818521,57174.555629999995,57174,1905.8,1907.3518574999998,57220.555725,57220,1907.3333333333333,1.401264919579262,1,0,7,1,2,3,b'NB_14_frameB_foil.png',1908.753122419579,57262.593672587376,57262,1908.7333333333333
131,1908.7638392499998,57262.91517749999,57262,1908.7333333333333,1909.26369725,57277.9109175,57277,1909.2333333333333,1910.7971045,57323.913134999995,57323,1910.7666666666667,1.4201484968943987,3,0,7,1,2,3,b'HB_5_frameA_foil.png',1912.2172529968943,57366.51758990683,57366,1912.2
132,1912.22789975,57366.8369925,57366,1912.2,1912.694471,57380.83413,57380,1912.6666666666667,1914.2278427499998,57426.8352825,57426,1914.2,1.4713083711394574,2,1,2,2,2,3,b'SB_3_frameB.png',1915.6991511211393,57470.97453363418,57470,1915.6666666666667
133,1915.70346525,57471.103957499996,57471,1915.7,1916.2200559999999,57486.60168,57486,1916.2,1917.75337975,57532.6013925,57532,1917.7333333333333,1.3499460860330146,1,1,6,1,1,2,b'NB_2_frameA.png',1919.103325836033,57573.09977508099,57573,1919.1
134,1919.10616175,57573.184852499995,57573,1919.1,1919.6227585,57588.682754999994,57588,1919.6,1921.15607325,57634.6821975,57634,1921.1333333333334,1.21950497632497,1,1,2,2,2,3,b'NB_17_frameB.png',1922.375578226325,57671.26734678975,57671,1922.3666666666666
135,1922.3877607499999,57671.632822499996,57671,1922.3666666666666,1922.8710165,57686.130495,57686,1922.8666666666666,1924.4043777499999,57732.131332499994,57732,1924.4,1.491576680506114,2,0,2,2,1,3,b'SB_3_frameB_foil.png',1925.895954430506,57776.87863291518,57776,1925.8666666666666
136,1925.9032475,57777.097425,57777,1925.9,1926.4531315,57793.593945,57793,1926.4333333333334,1927.9864827499998,57839.5944825,57839,1927.9666666666667,1.5926581762323622,3,1,6,1,1,2,b'HB_6_frameA.png',1929.5791409262322,57887.37422778697,57887,1929.5666666666666
137,1929.5812085,57887.436255,57887,1929.5666666666666,1930.0647354999999,57901.942064999996,57901,1930.0333333333333,1931.5980235,57947.940705,57947,1931.5666666666666,1.238362787407823,2,0,2,2,1,3,b'SB_9_frameB_foil.png',1932.8363862874078,57985.091588622236,57985,1932.8333333333333
138,1932.853293,57985.59879,57985,1932.8333333333333,1933.33652775,58000.095832499996,58000,1933.3333333333333,1934.869905,58046.09715,58046,1934.8666666666666,1.2621138172980864,3,0,6,1,2,2,b'HB_1_frameB_foil.png',1936.132018817298,58083.960564518944,58083,1936.1
139,1936.1446199999998,58084.338599999995,58084,1936.1333333333334,1936.6111987499999,58098.335962499994,58098,1936.6,1938.14445475,58144.3336425,58144,1938.1333333333334,1.139242918783566,2,1,2,2,2,3,b'SB_6_frameB.png',1939.2836976687836,58178.51093006351,58178,1939.2666666666667
140,1939.2935177499999,58178.805532499995,58178,1939.2666666666667,1939.8100762499998,58194.302287499995,58194,1939.8,1941.3438115,58240.314345,58240,1941.3333333333333,1.4343541036942042,1,1,7,1,1,3,b'NB_28_frameA.png',1942.778165603694,58283.344968110825,58283,1942.7666666666667
141,1942.7958425,58283.875275,58283,1942.7666666666667,1943.2624045,58297.872135,58297,1943.2333333333333,1944.79565925,58343.8697775,58343,1944.7666666666667,1.336148747446714,1,1,5,1,1,1,b'NB_1_frameB.png',1946.1318079974467,58383.9542399234,58383,1946.1
142,1946.146614,58384.39842,58384,1946.1333333333334,1946.61316475,58398.394942499996,58398,1946.6,1948.14663275,58444.3989825,58444,1948.1333333333334,1.2950959091249388,2,0,5,1,2,1,b'SB_1_frameB_foil.png',1949.441728659125,58483.25185977375,58483,1949.4333333333334
143,1949.45358575,58483.6075725,58483,1949.4333333333334,1949.9701357499998,58499.10407249999,58499,1949.9666666666667,1951.50348175,58545.1044525,58545,1951.5,1.5420186678529717,2,0,6,1,2,2,b'SB_4_frameB_foil.png',1953.045500417853,58591.36501253559,58591,1953.0333333333333
144,1953.0584235,58591.752705,58591,1953.0333333333333,1953.5915565,58607.746695,58607,1953.5666666666666,1955.12494625,58653.7483875,58653,1955.1,1.4258222939097323,2,1,6,1,1,2,b'SB_3_frameA.png',1956.5507685439097,58696.523056317295,58696,1956.5333333333333
145,1956.5609024999999,58696.827074999994,58696,1956.5333333333333,1957.0274687499998,58710.824062499996,58710,1957.0,1958.5607535,58756.822604999994,58756,1958.5333333333333,1.4346052906767,2,1,6,1,1,2,b'SB_8_frameB.png',1959.9953587906766,58799.860763720295,58799,1959.9666666666667
146,1960.0048075,58800.144225,58800,1960.0,1960.521331,58815.63993,58815,1960.5,1962.0547119999999,58861.641359999994,58861,1962.0333333333333,1.2910668947151862,2,1,6,1,1,2,b'SB_5_frameA.png',1963.345778894715,58900.37336684145,58900,1963.3333333333333
147,1963.35360075,58900.6080225,58900,1963.3333333333333,1963.87017,58916.1051,58916,1963.8666666666666,1965.4034064999998,58962.10219499999,58962,1965.4,1.3115963722229935,1,0,6,1,2,2,b'NB_15_frameA_foil.png',1966.7150028722228,59001.45008616668,59001,1966.7
148,1966.7226927499999,59001.68078249999,59001,1966.7,1967.1725992499998,59015.177977499996,59015,1967.1666666666667,1968.7059525,59061.178575,59061,1968.7,1.235622445907211,2,1,7,1,1,3,b'SB_3_frameA.png',1969.9415749459072,59098.247248377214,59098,1969.9333333333334
149,1969.94803125,59098.440937499996,59098,1969.9333333333334,1970.4145775,59112.437325,59112,1970.4,1971.94785975,59158.4357925,59158,1971.9333333333334,1.3833749072800856,3,0,5,1,2,1,b'HB_2_frameB_foil.png',1973.33123465728,59199.9370397184,59199,1973.3
150,1973.34519275,59200.3557825,59200,1973.3333333333333,1973.8617605,59215.852815,59215,1973.8333333333333,1975.39503025,59261.8509075,59261,1975.3666666666666,1.2854124763980508,1,0,7,1,2,3,b'NB_3_frameA_foil.png',1976.680442726398,59300.41328179194,59300,1976.6666666666667
151,1976.6922155,59300.766465,59300,1976.6666666666667,1977.2087625,59316.262875,59316,1977.2,1978.7421312499998,59362.26393749999,59362,1978.7333333333333,1.3220314271748066,3,0,6,1,2,2,b'HB_2_frameB_foil.png',1980.0641626771746,59401.92488031524,59401,1980.0333333333333
152,1980.07389025,59402.216707499996,59402,1980.0666666666666,1980.60711875,59418.2135625,59418,1980.6,1982.1403954999998,59464.211865,59464,1982.1333333333334,1.4513527954404708,3,1,6,1,1,2,b'HB_1_frameA.png',1983.5917482954403,59507.75244886321,59507,1983.5666666666666
153,1983.5954204999998,59507.86261499999,59507,1983.5666666666666,1984.12873275,59523.8619825,59523,1984.1,1985.6620787499999,59569.8623625,59569,1985.6333333333334,1.723392557934858,2,0,5,1,2,1,b'SB_2_frameA_foil.png',1987.3854713079347,59621.56413923804,59621,1987.3666666666666
154,1987.390205,59621.70615,59621,1987.3666666666666,1987.83994425,59635.198327499995,59635,1987.8333333333333,1989.37340725,59681.202217499995,59681,1989.3666666666666,1.2816879577294458,3,1,5,1,1,1,b'HB_6_frameA.png',1990.6550952077293,59719.65285623188,59719,1990.6333333333334
155,1990.66119025,59719.835707499995,59719,1990.6333333333334,1991.17773025,59735.331907499996,59735,1991.1666666666667,1992.711094,59781.33282,59781,1992.7,1.3489550104131922,2,0,7,1,2,3,b'SB_2_frameA_foil.png',1994.0600490104132,59821.8014703124,59821,1994.0333333333333
156,1994.0705759999998,59822.11728,59822,1994.0666666666666,1994.60380825,59838.114247499994,59838,1994.6,1996.1370607499998,59884.111822499995,59884,1996.1333333333334,1.229864770139102,3,1,6,1,1,2,b'HB_5_frameB.png',1997.366925520139,59921.00776560417,59921,1997.3666666666666
157,1997.37462225,59921.238667499994,59921,1997.3666666666666,1997.8245259999999,59934.735779999995,59934,1997.8,1999.3578874999998,59980.736625,59980,1999.3333333333333,1.3612951555405743,2,1,3,2,2,2,b'SB_1_frameB.png',2000.7191826555404,60021.575479666215,60021,2000.7
158,2000.7361125,60022.083375,60022,2000.7333333333333,2001.202636,60036.079079999996,60036,2001.2,2002.73613575,60082.084072499994,60082,2002.7333333333333,1.4565650261356495,1,1,7,1,1,3,b'NB_13_frameB.png',2004.1927007761356,60125.781023284064,60125,2004.1666666666667
159,2004.1996135,60125.988405,60125,2004.1666666666667,2004.7161764999998,60141.485295,60141,2004.7,2006.30079475,60189.0238425,60189,2006.3,1.320037076540757,2,0,2,2,1,3,b'SB_1_frameA_foil.png',2007.6208318265408,60228.62495479622,60228,2007.6
160,2007.6250242499998,60228.750727499995,60228,2007.6,2008.1915725,60245.747175,60245,2008.1666666666667,2009.72583575,60291.7750725,60291,2009.7,1.3720418246521149,3,0,2,2,1,3,b'HB_9_frameA_foil.png',2011.097877574652,60332.936327239564,60332,2011.0666666666666
161,2011.11667075,60333.500122499994,60333,2011.1,2011.6664852499998,60349.994557499995,60349,2011.6333333333334,2013.41765025,60402.529507499996,60402,2013.4,1.362671204347862,1,1,3,2,2,2,b'NB_25_frameB.png',2014.7803214543478,60443.40964363043,60443,2014.7666666666667
162,2014.7858345,60443.575035,60443,2014.7666666666667,2015.2857494999998,60458.572485,60458,2015.2666666666667,2016.8201385,60504.604155,60504,2016.8,1.3789622024924029,2,1,5,1,1,1,b'SB_5_frameB.png',2018.1991007024924,60545.97302107477,60545,2018.1666666666667
163,2018.2083754999999,60546.251265,60546,2018.2,2018.6916079999999,60560.74823999999,60560,2018.6666666666667,2020.2259634999998,60606.77890499999,60606,2020.2,1.3121761748625431,2,0,4,2,1,1,b'SB_4_frameA_foil.png',2021.5381396748624,60646.14419024587,60646,2021.5333333333333
164,2021.551421,60646.542629999996,60646,2021.5333333333333,2022.06799675,60662.0399025,60662,2022.0666666666666,2023.6014007499998,60708.0420225,60708,2023.6,1.1878255384799559,2,1,2,2,2,3,b'SB_2_frameB.png',2024.7892262884798,60743.6767886544,60743,2024.7666666666667
165,2024.8077477499999,60744.23243249999,60744,2024.8,2025.274232,60758.22696,60758,2025.2666666666667,2026.80771175,60804.2313525,60804,2026.8,1.224094364704797,3,0,6,1,2,2,b'HB_2_frameB_foil.png',2028.0318061147048,60840.95418344114,60840,2028.0
166,2028.0410395,60841.231185,60841,2028.0333333333333,2028.5409277499998,60856.22783249999,60856,2028.5333333333333,2030.0745975,60902.237925,60902,2030.0666666666666,1.2125061202968936,1,0,3,2,1,2,b'NB_27_frameA_foil.png',2031.2871036202969,60938.61310860891,60938,2031.2666666666667
167,2031.30186175,60939.0558525,60939,2031.3,2031.801765,60954.05295,60954,2031.8,2033.33541875,61000.062562499996,61000,2033.3333333333333,1.5997644627059344,1,0,4,2,1,1,b'NB_24_frameB_foil.png',2034.9351832127059,61048.055496381174,61048,2034.9333333333334
168,2034.9431372499998,61048.294117499994,61048,2034.9333333333334,2035.39304525,61061.7913575,61061,2035.3666666666666,2036.92740775,61107.822232499995,61107,2036.9,1.4515827526629437,2,0,2,2,1,3,b'SB_3_frameA_foil.png',2038.3789905026629,61151.36971507988,61151,2038.3666666666666
169,2038.38783975,61151.6351925,61151,2038.3666666666666,2038.8877439999999,61166.63232,61166,2038.8666666666666,2040.42172975,61212.6518925,61212,2040.4,1.3384633085515816,1,0,5,1,2,1,b'NB_26_frameB_foil.png',2041.7601930585515,61252.805791756546,61252,2041.7333333333333
170,2041.7638527499998,61252.9155825,61252,2041.7333333333333,2042.2637464999998,61267.91239499999,61267,2042.2333333333333,2043.7981785,61313.945354999996,61313,2043.7666666666667,1.3195269389252644,3,1,3,2,2,2,b'HB_4_frameB.png',2045.1177054389252,61353.531163167754,61353,2045.1
171,2045.1353522499999,61354.0605675,61354,2045.1333333333334,2045.6351722499999,61369.055167499995,61369,2045.6333333333334,2047.16857975,61415.0573925,61415,2047.1666666666667,1.4021902476379182,1,0,4,2,1,1,b'NB_2_frameB_foil.png',2048.570769997638,61457.12309992914,61457,2048.5666666666666
172,2048.5744165,61457.232495000004,61457,2048.5666666666666,2049.04108675,61471.2326025,61471,2049.0333333333333,2050.5745885,61517.237655000004,61517,2050.5666666666666,1.4109023238124792,1,1,6,1,1,2,b'NB_19_frameB.png',2051.9854908238126,61559.56472471438,61559,2051.9666666666667
173,2051.99859025,61559.95770749999,61559,2051.9666666666667,2052.4818235,61574.454705,61574,2052.4666666666667,2054.01561225,61620.46836749999,61620,2054.0,1.3560378343099728,3,0,2,2,1,3,b'HB_2_frameA_foil.png',2055.3716500843097,61661.14950252929,61661,2055.366666666667
174,2055.376393,61661.29179,61661,2055.366666666667,2055.8929347499998,61676.78804249999,61676,2055.866666666667,2057.4273435,61722.820305,61722,2057.4,1.2381202070682775,1,1,5,1,1,1,b'NB_10_frameA.png',2058.6654637070683,61759.96391121205,61759,2058.633333333333
175,2058.6819164999997,61760.457494999995,61760,2058.6666666666665,2059.2318145,61776.954435,61776,2059.2,2060.766006,61822.98018,61822,2060.733333333333,1.61404956120532,2,0,3,2,1,2,b'SB_1_frameA_foil.png',2062.380055561205,61871.40166683616,61871,2062.366666666667
176,2062.3912864999998,61871.738594999995,61871,2062.366666666667,2062.89117875,61886.7353625,61886,2062.866666666667,2064.4244995,61932.734984999996,61932,2064.4,1.5009998629393522,1,0,4,2,1,1,b'NB_20_frameB_foil.png',2065.9254993629393,61977.764980888176,61977,2065.9
177,2065.99780125,61979.9340375,61979,2065.9666666666667,2066.5078357499997,61995.23507249999,61995,2066.5,2068.038504,62041.15512,62041,2068.0333333333333,1.3987211556523107,2,1,5,1,1,1,b'SB_30_frameA.png',2069.4372251556524,62083.11675466957,62083,2069.4333333333334
178,2069.48255525,62084.4766575,62084,2069.4666666666667,2070.07358025,62102.2074075,62102,2070.0666666666666,2071.5874692499997,62147.62407749999,62147,2071.5666666666666,1.2393134088197257,2,0,3,2,1,2,b'SB_30_frameB_foil.png',2072.8267826588194,62184.80347976458,62184,2072.8
179,2072.8634039999997,62185.90211999999,62185,2072.8333333333335,2073.43877825,62203.1633475,62203,2073.4333333333334,2074.9633195,62248.89958500001,62248,2074.9333333333334,1.239148785971338,3,1,6,1,1,2,b'HB_30_frameB.png',2076.2024682859715,62286.07404857915,62286,2076.2
180,2076.2635152499997,62287.90545749999,62287,2076.233333333333,2076.85418475,62305.6255425,62305,2076.8333333333335,2078.4045632499997,62352.13689749999,62352,2078.4,1.4716916497272905,3,0,2,2,1,3,b'HB_30_frameA_foil.png',2079.876254899727,62396.28764699181,62396,2079.866666666667
