trial_num,fixcross_time,fixation_HZ,fixation_bin,fixation_regarded,start_time,Fstart_HZ,Fstart_bin,Fstart_regarded,stop_time,Fstop_HZ,Fstop_bin,Fstop_regarded,RT,boundary_type,stimuli_type,resp_value,old_new,accuracy,confidence,frameName,response_time,response_HZ,response_bin,response_regarded
1,1094.75920625,32842.7761875,32842,1094.7333333333333,1095.3090869999999,32859.27260999999,32859,1095.3,1096.87030875,32906.1092625,32906,1096.8666666666666,1.3505551034031669,1,1,3,2,2,2,b'NB_19_frameB.png',1098.2208638534032,32946.6259156021,32946,1098.2
2,1098.2416322499998,32947.248967499996,32947,1098.2333333333333,1098.791516,32963.74548,32963,1098.7666666666667,1100.32583825,33009.775147500004,33009,1100.3,1.8678986939194147,2,1,2,2,2,3,b'SB_1_frameB.png',1102.1937369439195,33065.81210831759,33065,1102.1666666666667
3,1102.28891925,33068.6675775,33068,1102.2666666666667,1102.8054835,33084.164505,33084,1102.8,1104.3389714999998,33130.16914499999,33130,1104.3333333333333,1.3545836040866561,1,1,3,2,2,2,b'NB_7_frameB.png',1105.6935551040865,33170.80665312259,33170,1105.6666666666667
4,1105.708979,33171.26937,33171,1105.7,1106.1755409999998,33185.266229999994,33185,1106.1666666666667,1107.71081125,33231.3243375,33231,1107.7,1.3528489803720731,1,1,3,2,2,2,b'NB_24_frameA.png',1109.063660230372,33271.909806911164,33271,1109.0333333333333
5,1109.1408689999998,33274.22607,33274,1109.1333333333334,1109.674078,33290.22234,33290,1109.6666666666667,1111.22983675,33336.8951025,33336,1111.2,2.027900085056899,2,0,6,1,2,2,b'SB_2_frameB_foil.png',1113.257736835057,33397.732105051706,33397,1113.2333333333333
6,1113.40108825,33402.0326475,33402,1113.4,1113.9176392499999,33417.52917749999,33417,1113.9,1115.4527679999999,33463.58304,33463,1115.4333333333334,1.3526597693999065,1,0,7,1,2,3,b'NB_15_frameA_foil.png',1116.8054277693998,33504.162833081995,33504,1116.8
7,1116.8191445,33504.574335,33504,1116.8,1117.3690215,33521.070645,33521,1117.3666666666666,1118.9034542499999,33567.10362749999,33567,1118.9,1.762917021434987,3,0,2,2,1,3,b'HB_9_frameB_foil.png',1120.6663712714349,33619.99113814304,33619,1120.6333333333334
8,1120.8393537499999,33625.18061249999,33625,1120.8333333333333,1121.4059115,33642.177345000004,33642,1121.4,1122.939942,33688.19826,33688,1122.9333333333334,1.0561047807859723,3,1,2,2,2,3,b'HB_2_frameA.png',1123.996046780786,33719.88140342358,33719,1123.9666666666667
9,1124.19994225,33725.9982675,33725,1124.1666666666667,1124.69983725,33740.9951175,33740,1124.6666666666667,1126.23440525,33787.0321575,33787,1126.2333333333333,2.061230791878188,3,0,7,1,2,3,b'HB_1_frameA_foil.png',1128.2956360418782,33848.86908125634,33848,1128.2666666666667
10,1128.30968625,33849.2905875,33849,1128.3,1128.8095907499999,33864.2877225,33864,1128.8,1130.3438565,33910.315695,33910,1130.3333333333333,1.7245967583585298,2,0,7,1,2,3,b'SB_5_frameB_foil.png',1132.0684532583584,33962.05359775075,33962,1132.0666666666666
11,1132.1160344999998,33963.481035,33963,1132.1,1132.6825804999999,33980.477414999994,33980,1132.6666666666667,1134.21832225,34026.5496675,34026,1134.2,1.3532516089180717,1,1,2,2,2,3,b'NB_18_frameA.png',1135.571573858918,34067.147215767545,34067,1135.5666666666666
12,1135.58492125,34067.5476375,34067,1135.5666666666666,1136.05150075,34081.5450225,34081,1136.0333333333333,1137.58642425,34127.5927275,34127,1137.5666666666666,1.528567383036716,2,0,7,1,2,3,b'SB_4_frameB_foil.png',1139.1149916330367,34173.4497489911,34173,1139.1
13,1139.1774269999999,34175.32281,34175,1139.1666666666667,1139.660623,34189.81869,34189,1139.6333333333334,1141.19446,34235.8338,34235,1141.1666666666667,1.3511733606865164,1,0,7,1,2,3,b'NB_19_frameA_foil.png',1142.5456333606865,34276.369000820596,34276,1142.5333333333333
14,1142.56075075,34276.8225225,34276,1142.5333333333333,1143.0773215,34292.319644999996,34292,1143.0666666666666,1144.61090075,34338.3270225,34338,1144.6,1.3585599708312657,3,1,6,1,1,2,b'HB_1_frameB.png',1145.9694607208312,34379.08382162494,34379,1145.9666666666667
15,1146.113331,34383.39993,34383,1146.1,1146.71321075,34401.3963225,34401,1146.7,1148.2471504999999,34447.414515,34447,1148.2333333333333,2.0308910301391734,2,1,2,2,2,3,b'SB_3_frameA.png',1150.278041530139,34508.34124590417,34508,1150.2666666666667
16,1150.2934022499999,34508.80206749999,34508,1150.2666666666667,1150.80996875,34524.2990625,34524,1150.8,1152.34460625,34570.3381875,34570,1152.3333333333333,0.9272246495966101,2,1,2,2,2,3,b'SB_2_frameA.png',1153.2718308995966,34598.154926987896,34598,1153.2666666666667
17,1153.42712825,34602.813847499994,34602,1153.4,1153.97701575,34619.3104725,34619,1153.9666666666667,1155.510889,34665.326669999995,34665,1155.5,1.9986115794890793,2,1,2,2,2,3,b'SB_6_frameB.png',1157.509500579489,34725.28501738467,34725,1157.5
18,1157.5243222499998,34725.729667499996,34725,1157.5,1158.05753875,34741.7261625,34741,1158.0333333333333,1159.59130875,34787.7392625,34787,1159.5666666666666,0.5595051444252022,2,0,7,1,2,3,b'SB_2_frameB_foil.png',1160.1508138944253,34804.524416832755,34804,1160.1333333333334
19,1160.28686,34808.6058,34808,1160.2666666666667,1160.7701084999999,34823.103254999995,34823,1160.7666666666667,1162.30496975,34869.1490925,34869,1162.3,0.925034258456435,2,0,6,1,2,2,b'SB_3_frameB_foil.png',1163.2300040084565,34896.9001202537,34896,1163.2
20,1163.3009875,34899.029625,34899,1163.3,1163.8841997499999,34916.5259925,34916,1163.8666666666666,1165.418387,34962.551609999995,34962,1165.4,1.251039325055899,3,0,7,1,2,3,b'HB_2_frameB_foil.png',1166.6694263250558,35000.08278975167,35000,1166.6666666666667
21,1166.7194275,35001.582825,35001,1166.7,1167.30266225,35019.0798675,35019,1167.3,1168.8374485,35065.123455,35065,1168.8333333333333,1.3517052778042853,1,1,2,2,2,3,b'NB_6_frameA.png',1170.1891537778042,35105.67461333413,35105,1170.1666666666667
22,1170.31230025,35109.3690075,35109,1170.3,1170.87884375,35126.3653125,35126,1170.8666666666666,1172.41257,35172.3771,35172,1172.4,1.3532579362217803,1,1,3,2,2,2,b'NB_25_frameB.png',1173.7658279362217,35212.97483808665,35212,1173.7333333333333
23,1173.81837675,35214.5513025,35214,1173.8,1174.3849215,35231.547645,35231,1174.3666666666666,1175.918611,35277.55833,35277,1175.9,1.027985170352622,3,1,2,2,2,3,b'HB_4_frameB.png',1176.9465961703527,35308.39788511058,35308,1176.9333333333334
24,1177.016273,35310.48819,35310,1177.0,1177.54949725,35326.4849175,35326,1177.5333333333333,1179.08370675,35372.5112025,35372,1179.0666666666666,1.052921146620065,3,0,3,2,1,2,b'HB_1_frameA_foil.png',1180.13662789662,35404.0988368986,35404,1180.1333333333334
25,1180.24025425,35407.2076275,35407,1180.2333333333333,1180.8068065,35424.204195,35424,1180.8,1182.3416045,35470.248134999994,35470,1182.3333333333333,0.6645681832160335,3,0,6,1,2,2,b'HB_8_frameA_foil.png',1183.006172683216,35490.185180496475,35490,1183.0
26,1183.05937125,35491.781137499995,35491,1183.0333333333333,1183.59260725,35507.778217499996,35507,1183.5666666666666,1185.12637275,35553.7911825,35553,1185.1,1.6329252854047809,3,1,7,1,1,3,b'HB_4_frameB.png',1186.7592980354048,35602.77894106214,35602,1186.7333333333333
27,1186.82052625,35604.6157875,35604,1186.8,1187.3870775,35621.612325,35621,1187.3666666666666,1188.920764,35667.62292,35667,1188.9,1.1026169375545578,3,0,7,1,2,3,b'HB_2_frameA_foil.png',1190.0233809375545,35700.70142812664,35700,1190.0
28,1190.19776,35705.9328,35705,1190.1666666666667,1190.7143225,35721.429675,35721,1190.7,1192.24924925,35767.477477500004,35767,1192.2333333333333,1.6534510787168983,3,1,2,2,2,3,b'HB_1_frameB.png',1193.902700328717,35817.08100986151,35817,1193.9
29,1193.98091525,35819.4274575,35819,1193.9666666666667,1194.5307827499998,35835.923482499995,35835,1194.5,1196.08137225,35882.4411675,35882,1196.0666666666666,1.288215636915993,2,0,7,1,2,3,b'SB_1_frameA_foil.png',1197.369587886916,35921.08763660748,35921,1197.3666666666666
30,1197.384646,35921.53938,35921,1197.3666666666666,1197.85119925,35935.5359775,35935,1197.8333333333333,1199.38454475,35981.5363425,35981,1199.3666666666666,0.44215245588566177,3,1,7,1,1,3,b'HB_1_frameB.png',1199.8266972058857,35994.80091617657,35994,1199.8
31,1199.98387,35999.5161,35999,1199.9666666666667,1200.5004485,36015.013455,36015,1200.5,1202.03443875,36061.033162499996,36061,1202.0333333333333,1.436886099370895,2,0,7,1,2,3,b'SB_7_frameB_foil.png',1203.4713248493708,36104.13974548112,36104,1203.4666666666667
32,1203.5318304999998,36105.954914999995,36105,1203.5,1204.13170975,36123.9512925,36123,1204.1,1205.6659762499999,36169.9792875,36169,1205.6333333333334,0.7655355049064383,2,0,7,1,2,3,b'SB_4_frameA_foil.png',1206.4315117549063,36192.94535264719,36192,1206.4
33,1206.5671565,36197.014695,36197,1206.5666666666666,1207.06702425,36212.010727500005,36212,1207.0666666666666,1208.60078075,36258.0234225,36258,1208.6,1.5000939463061513,3,1,7,1,1,3,b'HB_1_frameA.png',1210.1008746963062,36303.02624088919,36303,1210.1
34,1210.1415305,36304.245915,36304,1210.1333333333334,1210.7580874999999,36322.742625,36322,1210.7333333333333,1212.2929319999998,36368.787959999994,36368,1212.2666666666667,1.3525484294077614,1,1,2,2,2,3,b'NB_1_frameB.png',1213.6454804294076,36409.36441288223,36409,1213.6333333333334
35,1213.65935825,36409.7807475,36409,1213.6333333333334,1214.2259092499999,36426.7772775,36426,1214.2,1215.7610095,36472.830285000004,36472,1215.7333333333333,1.3501103307498852,1,1,2,2,2,3,b'NB_13_frameB.png',1217.1111198307499,36513.3335949225,36513,1217.1
36,1217.24010475,36517.2031425,36517,1217.2333333333333,1217.7899955,36533.699865,36533,1217.7666666666667,1219.3246817499999,36579.740452499995,36579,1219.3,1.35191526755807,1,0,6,1,2,2,b'NB_23_frameA_foil.png',1220.676597017558,36620.29791052674,36620,1220.6666666666667
37,1220.69058075,36620.7174225,36620,1220.6666666666667,1221.2404635,36637.213905000004,36637,1221.2333333333333,1222.775138,36683.25414,36683,1222.7666666666667,1.8114157441450516,2,1,2,2,2,3,b'SB_2_frameB.png',1224.586553744145,36737.59661232435,36737,1224.5666666666666
38,1224.739446,36742.18338,36742,1224.7333333333333,1225.3060102499999,36759.1803075,36759,1225.3,1226.8409589999999,36805.228769999994,36805,1226.8333333333333,1.3533717676909873,1,0,7,1,2,3,b'NB_4_frameB_foil.png',1228.1943307676909,36845.829923030724,36845,1228.1666666666667
39,1228.2080385,36846.241154999996,36846,1228.2,1228.7246,36861.738,36861,1228.7,1230.2594445,36907.783335,36907,1230.2333333333333,0.8457572273327969,3,0,7,1,2,3,b'HB_2_frameB_foil.png',1231.1052017273328,36933.156051819984,36933,1231.1
40,1231.1733602499999,36935.2008075,36935,1231.1666666666667,1231.62327875,36948.6983625,36948,1231.6,1233.1578144999999,36994.734435,36994,1233.1333333333334,0.5078392907889793,3,1,2,2,2,3,b'HB_3_frameA.png',1233.6656537907888,37009.96961372367,37009,1233.6333333333334
41,1233.680216,37010.40648,37010,1233.6666666666667,1234.21344925,37026.4034775,37026,1234.2,1235.74774275,37072.4322825,37072,1235.7333333333333,1.4408589431259315,2,0,7,1,2,3,b'SB_1_frameB_foil.png',1237.188601693126,37115.658050793776,37115,1237.1666666666667
42,1237.2573985,37117.721955,37117,1237.2333333333333,1237.7906377499999,37133.719132499995,37133,1237.7666666666667,1239.32431825,37179.7295475,37179,1239.3,1.3545045775390463,1,0,7,1,2,3,b'NB_25_frameA_foil.png',1240.678822827539,37220.36468482617,37220,1240.6666666666667
43,1240.6939647499999,37220.818942499995,37220,1240.6666666666667,1241.27719175,37238.3157525,37238,1241.2666666666667,1242.81217025,37284.3651075,37284,1242.8,0.997713326025405,2,1,2,2,2,3,b'SB_5_frameB.png',1243.8098835760254,37314.296507280764,37314,1243.8
44,1243.8236292499998,37314.708877499994,37314,1243.8,1244.323527,37329.70581,37329,1244.3,1245.85755875,37375.726762499995,37375,1245.8333333333333,1.198844998900313,3,1,3,2,2,2,b'HB_8_frameB.png',1247.0564037489003,37411.692112467004,37411,1247.0333333333333
45,1247.111797,37413.35391,37413,1247.1,1247.59506025,37427.851807499996,37427,1247.5666666666666,1249.1292349999999,37473.877049999996,37473,1249.1,1.6410263402358396,3,1,2,2,2,3,b'HB_5_frameA.png',1250.7702613402357,37523.10784020707,37523,1250.7666666666667
46,1250.7848105,37523.544315,37523,1250.7666666666667,1251.3346972499999,37540.040917499995,37540,1251.3333333333333,1252.86836025,37586.0508075,37586,1252.8666666666666,1.8573278027033666,3,1,3,2,2,2,b'HB_9_frameA.png',1254.7256880527034,37641.770641581104,37641,1254.7
47,1254.7811259999999,37643.43377999999,37643,1254.7666666666667,1255.3310119999999,37659.93036,37659,1255.3,1256.864723,37705.94169,37705,1256.8333333333333,0.956352597771911,2,1,3,2,2,2,b'SB_4_frameB.png',1257.8210755977718,37734.63226793316,37734,1257.8
48,1257.8853877499998,37736.561632499994,37736,1257.8666666666666,1258.41860675,37752.5582025,37752,1258.4,1259.95291825,37798.5875475,37798,1259.9333333333334,1.353124297253089,1,0,7,1,2,3,b'NB_22_frameB_foil.png',1261.3060425472531,37839.18127641759,37839,1261.3
49,1261.361747,37840.85241,37840,1261.3333333333333,1261.82826275,37854.8478825,37854,1261.8,1263.36215825,37900.8647475,37900,1263.3333333333333,1.0564852307434194,2,1,3,2,2,2,b'SB_2_frameB.png',1264.4186434807434,37932.559304422306,37932,1264.4
50,1264.479898,37934.39694,37934,1264.4666666666667,1265.0130917499998,37950.392752499996,37950,1265.0,1266.5467394999998,37996.40218499999,37996,1266.5333333333333,1.9618132770701777,3,0,6,1,2,2,b'HB_8_frameA_foil.png',1268.50855277707,38055.2565833121,38055,1268.5
51,1268.523577,38055.70731,38055,1268.5,1269.02348625,38070.7045875,38070,1269.0,1270.557076,38116.71228,38116,1270.5333333333333,1.3532038170960732,1,1,2,2,2,3,b'NB_30_frameA.png',1271.9102798170961,38157.30839451288,38157,1271.9
52,1271.9671509999998,38159.01452999999,38159,1271.9666666666667,1272.45032375,38173.5097125,38173,1272.4333333333334,1273.98410775,38219.5232325,38219,1273.9666666666667,1.1243444624415133,3,0,4,2,1,1,b'HB_1_frameB_foil.png',1275.1084522124415,38253.25356637325,38253,1275.1
53,1275.160394,38254.81182,38254,1275.1333333333334,1275.62696925,38268.8090775,38268,1275.6,1277.16105225,38314.8315675,38314,1277.1333333333334,1.1106069092347752,2,0,7,1,2,3,b'SB_8_frameA_foil.png',1278.2716591592348,38348.14977477704,38348,1278.2666666666667
54,1278.3220059999999,38349.66018,38349,1278.3,1278.83856,38365.1568,38365,1278.8333333333333,1280.372408,38411.17224,38411,1280.3666666666666,0.822488789955969,3,1,3,2,2,2,b'HB_5_frameA.png',1281.194896789956,38435.84690369868,38435,1281.1666666666667
55,1281.20990525,38436.2971575,38436,1281.2,1281.74313125,38452.2939375,38452,1281.7333333333333,1283.2780042499999,38498.34012749999,38498,1283.2666666666667,1.3523254321189597,1,0,7,1,2,3,b'NB_29_frameA_foil.png',1284.6303296821188,38538.90989046356,38538,1284.6
56,1284.75698025,38542.7094075,38542,1284.7333333333333,1285.29020175,38558.7060525,38558,1285.2666666666667,1286.84193625,38605.2580875,38605,1286.8333333333333,1.3532949572545476,1,1,2,2,2,3,b'NB_12_frameA.png',1288.1952312072544,38645.856936217635,38645,1288.1666666666667
57,1288.343046,38650.291379999995,38650,1288.3333333333333,1288.89293275,38666.7879825,38666,1288.8666666666666,1290.4268855,38712.806565,38712,1290.4,1.3537619212002028,1,0,6,1,2,2,b'NB_21_frameA_foil.png',1291.7806474212002,38753.419422636005,38753,1291.7666666666667
58,1291.839018,38755.17054,38755,1291.8333333333333,1292.3889195,38771.667584999996,38771,1292.3666666666666,1293.92288225,38817.686467499996,38817,1293.9,2.897111147380201,3,0,4,2,1,1,b'HB_9_frameA_foil.png',1296.8199933973801,38904.5998019214,38904,1296.8
59,1296.83488975,38905.0466925,38905,1296.8333333333333,1297.3181117499998,38919.5433525,38919,1297.3,1298.8523062499999,38965.5691875,38965,1298.8333333333333,1.3517313297634246,1,1,3,2,2,2,b'NB_5_frameB.png',1300.2040375797633,39006.1211273929,39006,1300.2
60,1300.2553555,39007.660664999996,39007,1300.2333333333333,1300.7552429999998,39022.657289999996,39022,1300.7333333333333,1302.2899625,39068.698875,39068,1302.2666666666667,1.354479560162872,1,0,7,1,2,3,b'NB_5_frameA_foil.png',1303.6444420601629,39109.33326180489,39109,1303.6333333333334
61,1303.747439,39112.42317,39112,1303.7333333333333,1304.33064475,39129.9193425,39129,1304.3,1305.86584625,39175.9753875,39175,1305.8333333333333,1.3506650154449744,1,1,3,2,2,2,b'NB_8_frameA.png',1307.216511265445,39216.49533796335,39216,1307.2
62,1307.2953075,39218.859225,39218,1307.2666666666667,1307.7618902499999,39232.856707499996,39232,1307.7333333333333,1309.29667475,39278.9002425,39278,1309.2666666666667,1.4190105702728033,2,1,2,2,2,3,b'SB_6_frameA.png',1310.7156853202728,39321.470559608184,39321,1310.7
63,1310.773909,39323.21727,39323,1310.7666666666667,1311.290464,39338.713919999995,39338,1311.2666666666667,1312.82480425,39384.7441275,39384,1312.8,1.450500427163206,2,1,3,2,2,2,b'SB_5_frameA.png',1314.2753046771631,39428.2591403149,39428,1314.2666666666667
64,1314.31889675,39429.5669025,39429,1314.3,1314.8187934999999,39444.563805,39444,1314.8,1316.3534937499999,39490.604812499994,39490,1316.3333333333333,1.0354766776727047,3,0,6,1,2,2,b'HB_7_frameA_foil.png',1317.3889704276726,39521.669112830175,39521,1317.3666666666666
65,1317.488793,39524.66379,39524,1317.4666666666667,1318.022029,39540.66087,39540,1318.0,1319.5567294999998,39586.701884999995,39586,1319.5333333333333,1.3529356043436565,1,1,3,2,2,2,b'NB_26_frameA.png',1320.9096651043435,39627.289953130305,39627,1320.9
66,1321.0081249999998,39630.243749999994,39630,1321.0,1321.4913505,39644.740515,39644,1321.4666666666667,1323.025394,39690.76182,39690,1323.0,1.2193806852737907,2,1,2,2,2,3,b'SB_2_frameA.png',1324.2447746852738,39727.34324055821,39727,1324.2333333333333
67,1324.2595215,39727.785644999996,39727,1324.2333333333333,1324.7261015,39741.783045,39741,1324.7,1326.2602299999999,39787.806899999996,39787,1326.2333333333333,1.3526748703443445,1,0,6,1,2,2,b'NB_10_frameB_foil.png',1327.6129048703442,39828.387146110326,39828,1327.6
68,1327.747073,39832.41219,39832,1327.7333333333333,1328.2303184999998,39846.909555,39846,1328.2,1329.7641535,39892.924605,39892,1329.7333333333333,1.4372169832204236,2,0,2,2,1,3,b'SB_1_frameB_foil.png',1331.2013704832204,39936.04111449661,39936,1331.2
69,1331.3402515,39940.207545,39940,1331.3333333333333,1331.87348225,39956.2044675,39956,1331.8666666666666,1333.4083185,40002.249555,40002,1333.4,1.1925684216694208,2,0,3,2,1,2,b'SB_1_frameA_foil.png',1334.6008869216694,40038.026607650085,40038,1334.6
70,1334.7234455,40041.703365,40041,1334.7,1335.2233455,40056.700365000004,40056,1335.2,1336.75730725,40102.719217499995,40102,1336.7333333333333,1.355314868123969,1,1,2,2,2,3,b'NB_10_frameA.png',1338.112622118124,40143.37866354371,40143,1338.1
71,1338.18322275,40145.4966825,40145,1338.1666666666667,1338.78310675,40163.493202499994,40163,1338.7666666666667,1340.31732975,40209.5198925,40209,1340.3,0.9549349951848853,3,1,4,2,2,1,b'HB_1_frameA.png',1341.2722647451849,40238.16794235555,40238,1341.2666666666667
72,1341.3174105,40239.522315,40239,1341.3,1341.8506095,40255.518285,40255,1341.8333333333333,1343.38532575,40301.5597725,40301,1343.3666666666666,1.352560046085273,1,0,2,2,1,3,b'NB_2_frameB_foil.png',1344.7378857960853,40342.136573882555,40342,1344.7333333333333
73,1344.798628,40343.95884,40343,1344.7666666666667,1345.365173,40360.95519,40360,1345.3333333333333,1346.9002235,40407.006705,40407,1346.9,1.357541624995065,1,1,6,1,1,2,b'NB_22_frameA.png',1348.257765124995,40447.73295374985,40447,1348.2333333333333
74,1348.38488175,40451.5464525,40451,1348.3666666666666,1348.90144075,40467.0432225,40467,1348.9,1350.435466,40513.06398,40513,1350.4333333333334,1.3526157826709095,1,0,3,2,1,2,b'NB_3_frameA_foil.png',1351.7880817826708,40553.642453480126,40553,1351.7666666666667
75,1351.803498,40554.10494,40554,1351.8,1352.303408,40569.10224,40569,1352.3,1353.83715375,40615.1146125,40615,1353.8333333333333,1.5507652959349798,2,1,7,1,1,3,b'SB_7_frameB.png',1355.387919045935,40661.63757137805,40661,1355.3666666666666
76,1355.47925075,40664.3775225,40664,1355.4666666666667,1355.94583175,40678.3749525,40678,1355.9333333333334,1357.47957225,40724.387167500005,40724,1357.4666666666667,2.146789317819639,2,1,3,2,2,2,b'SB_1_frameA.png',1359.6263615678197,40788.790847034594,40788,1359.6
77,1359.64211175,40789.2633525,40789,1359.6333333333334,1360.1586742499999,40804.760227499995,40804,1360.1333333333334,1361.69279925,40850.7839775,40850,1361.6666666666667,1.8481054968287935,2,1,7,1,1,3,b'SB_4_frameB.png',1363.5409047468288,40906.22714240487,40906,1363.5333333333333
78,1363.5557999999999,40906.674,40906,1363.5333333333333,1364.0890195,40922.670585,40922,1364.0666666666666,1365.624088,40968.72264,40968,1365.6,1.2962234376173,2,0,6,1,2,2,b'SB_7_frameA_foil.png',1366.9203114376173,41007.60934312852,41007,1366.9
79,1366.9341084999999,41008.02325499999,41008,1366.9333333333334,1367.4506757499998,41023.5202725,41023,1367.4333333333334,1368.98466125,41069.5398375,41069,1368.9666666666667,1.5372109333693516,2,0,6,1,2,2,b'SB_2_frameB_foil.png',1370.5218721833694,41115.65616550108,41115,1370.5
80,1370.53658425,41116.0975275,41116,1370.5333333333333,1371.05314875,41131.5944625,41131,1371.0333333333333,1372.587709,41177.63127,41177,1372.5666666666666,1.4046317118045408,2,0,7,1,2,3,b'SB_6_frameA_foil.png',1373.9923407118044,41219.770221354134,41219,1373.9666666666667
81,1374.0506444999999,41221.519335,41221,1374.0333333333333,1374.5171982499999,41235.5159475,41235,1374.5,1376.0517625,41281.552875,41281,1376.0333333333333,1.2884021335921716,2,1,6,1,1,2,b'SB_3_frameB.png',1377.3401646335922,41320.20493900777,41320,1377.3333333333333
82,1377.39320625,41321.796187500004,41321,1377.3666666666666,1377.926463,41337.79389,41337,1377.9,1379.46064175,41383.8192525,41383,1379.4333333333334,1.3377614751225337,2,1,7,1,1,3,b'SB_8_frameB.png',1380.7984032251225,41423.952096753674,41423,1380.7666666666667
83,1380.8131485,41424.394454999994,41424,1380.8,1381.34636875,41440.3910625,41440,1381.3333333333333,1382.8815785,41486.447355,41486,1382.8666666666666,1.9568614683812484,2,0,6,1,2,2,b'SB_2_frameA_foil.png',1384.8384399683812,41545.153199051434,41545,1384.8333333333333
84,1384.95187775,41548.5563325,41548,1384.9333333333334,1385.43512625,41563.0537875,41563,1385.4333333333334,1386.9695239999999,41609.085719999995,41609,1386.9666666666667,1.5675592272309586,3,1,5,1,1,1,b'HB_8_frameB.png',1388.5370832272308,41656.112496816924,41656,1388.5333333333333
85,1388.6022672499998,41658.068017499994,41658,1388.6,1389.11883075,41673.564922499994,41673,1389.1,1390.6534955,41719.604865,41719,1390.6333333333334,0.7630758160812547,3,0,7,1,2,3,b'HB_6_frameA_foil.png',1391.4165713160812,41742.49713948244,41742,1391.4
86,1391.47514375,41744.254312499994,41744,1391.4666666666667,1391.94171625,41758.2514875,41758,1391.9333333333334,1393.4761194999999,41804.283585,41804,1393.4666666666667,0.9748271516727982,3,1,2,2,2,3,b'HB_2_frameB.png',1394.4509466516727,41833.52839955018,41833,1394.4333333333334
87,1394.53599325,41836.0797975,41836,1394.5333333333333,1395.0358872499999,41851.076617499995,41851,1395.0333333333333,1396.569703,41897.091089999994,41897,1396.5666666666666,1.3519925284053897,1,1,2,2,2,3,b'NB_4_frameA.png',1397.9216955284053,41937.650865852156,41937,1397.9
88,1398.0543625,41941.630875,41941,1398.0333333333333,1398.5042752499999,41955.12825749999,41955,1398.5,1400.03779175,42001.1337525,42001,1400.0333333333333,0.5284745597600704,3,1,3,2,2,2,b'HB_3_frameA.png',1400.56626630976,42016.9879892928,42016,1400.5333333333333
89,1400.68153975,42020.4461925,42020,1400.6666666666667,1401.2147687499998,42036.443062499995,42036,1401.2,1402.74913825,42082.4741475,42082,1402.7333333333333,1.3562754210142884,1,0,7,1,2,3,b'NB_9_frameA_foil.png',1404.1054136710143,42123.162410130426,42123,1404.1
90,1404.1197989999998,42123.593969999994,42123,1404.1,1404.7030149999998,42141.090449999996,42141,1404.7,1406.23687425,42187.1062275,42187,1406.2333333333333,1.352973997767549,1,0,3,2,1,2,b'NB_11_frameA_foil.png',1407.5898482477676,42227.69544743303,42227,1407.5666666666666
91,1407.60483125,42228.1449375,42228,1407.6,1408.10472975,42243.141892499996,42243,1408.1,1409.6395029999999,42289.18509,42289,1409.6333333333334,1.217406638112152,3,1,4,2,2,1,b'HB_7_frameB.png',1410.856909638112,42325.70728914336,42325,1410.8333333333333
92,1410.9484865,42328.454594999996,42328,1410.9333333333334,1411.51504375,42345.451312499994,42345,1411.5,1413.049155,42391.47465,42391,1413.0333333333333,1.3526397039822768,1,1,2,2,2,3,b'NB_14_frameA.png',1414.4017947039822,42432.053841119465,42432,1414.4
93,1414.41650725,42432.4952175,42432,1414.4,1414.9163717499998,42447.49115249999,42447,1414.9,1416.4511805,42493.535415,42493,1416.4333333333334,1.3532048817141913,1,0,7,1,2,3,b'NB_16_frameB_foil.png',1417.8043853817142,42534.131561451424,42534,1417.8
94,1417.92502275,42537.750682499995,42537,1417.9,1418.391517,42551.74551,42551,1418.3666666666666,1419.92630925,42597.7892775,42597,1419.9,1.3515907087130472,1,0,3,2,1,2,b'NB_20_frameB_foil.png',1421.277899958713,42638.33699876139,42638,1421.2666666666667
95,1421.382746,42641.48238,42641,1421.3666666666666,1421.8826465,42656.479395,42656,1421.8666666666666,1423.41747025,42702.5241075,42702,1423.4,1.3509467716648942,1,1,2,2,2,3,b'NB_15_frameB.png',1424.7684170216648,42743.05251064995,42743,1424.7666666666667
96,1424.8210717499999,42744.632152499995,42744,1424.8,1425.4376085,42763.128254999996,42763,1425.4333333333334,1426.9722514999999,42809.167545,42809,1426.9666666666667,0.7368069928052137,3,1,4,2,2,1,b'HB_9_frameB.png',1427.709058492805,42831.27175478415,42831,1427.7
97,1427.723789,42831.71367,42831,1427.7,1428.30700125,42849.2100375,42849,1428.3,1429.8417817499999,42895.253452499994,42895,1429.8333333333333,1.5227291465562303,3,1,5,1,1,1,b'HB_7_frameA.png',1431.364510896556,42940.93532689668,42940,1431.3333333333333
98,1431.4252199999999,42942.75659999999,42942,1431.4,1431.991777,42959.75331,42959,1431.9666666666667,1433.5255035,43005.765105,43005,1433.5,1.418825601809658,3,1,4,2,2,1,b'HB_6_frameA.png',1434.9443291018097,43048.32987305429,43048,1434.9333333333334
99,1435.0149407499998,43050.448222499996,43050,1435.0,1435.5314947499999,43065.944842499994,43065,1435.5,1437.06558075,43111.9674225,43111,1437.0333333333333,1.3520935711858328,1,0,6,1,2,2,b'NB_12_frameB_foil.png',1438.4176743211858,43152.53022963557,43152,1438.4
100,1438.58161025,43157.4483075,43157,1438.5666666666666,1439.11484075,43173.4452225,43173,1439.1,1440.64927275,43219.478182499995,43219,1440.6333333333334,0.9480765909393085,3,0,3,2,1,2,b'HB_6_frameB_foil.png',1441.5973493409392,43247.920480228175,43247,1441.5666666666666
101,1441.7252732499999,43251.7581975,43251,1441.7,1442.258507,43267.75521,43267,1442.2333333333333,1443.7923577499998,43313.770732499994,43313,1443.7666666666667,1.2369504514645087,2,1,3,2,2,2,b'SB_8_frameA.png',1445.0293082014643,43350.87924604393,43350,1445.0
102,1445.044136,43351.32408,43351,1445.0333333333333,1445.5773345,43367.320035,43367,1445.5666666666666,1447.11115125,43413.3345375,43413,1447.1,1.556670065925573,2,1,3,2,2,2,b'SB_1_frameB.png',1448.6678213159255,43460.034639477766,43460,1448.6666666666667
103,1448.82922625,43464.8767875,43464,1448.8,1449.3624492499998,43480.8734775,43480,1449.3333333333333,1450.8963414999998,43526.890244999995,43526,1450.8666666666666,1.1219478563580196,3,0,7,1,2,3,b'HB_4_frameA_foil.png',1452.0182893563579,43560.548680690736,43560,1452.0
104,1452.1699529999999,43565.098589999994,43565,1452.1666666666667,1452.7198314999998,43581.594945,43581,1452.7,1454.25465525,43627.6396575,43627,1454.2333333333333,1.3530985007382696,1,0,6,1,2,2,b'NB_13_frameA_foil.png',1455.6077537507383,43668.23261252215,43668,1455.6
105,1455.7697262499998,43673.091787499994,43673,1455.7666666666667,1456.2696145,43688.088435,43688,1456.2666666666667,1457.803483,43734.10449,43734,1457.8,1.7416700895264512,2,1,2,2,2,3,b'SB_6_frameB.png',1459.5451530895264,43786.35459268579,43786,1459.5333333333333
106,1459.5599479999998,43786.79844,43786,1459.5333333333333,1460.1098534999999,43803.295605,43803,1460.1,1461.64481175,43849.3443525,43849,1461.6333333333334,1.354607066285098,1,0,6,1,2,2,b'NB_27_frameA_foil.png',1462.999418816285,43889.98256448855,43889,1462.9666666666667
107,1463.16480125,43894.9440375,43894,1463.1333333333334,1463.6813654999999,43910.440964999994,43910,1463.6666666666667,1465.2157364999998,43956.472095,43956,1465.2,1.3547054321679752,1,1,2,2,2,3,b'NB_2_frameA.png',1466.5704419321678,43997.11325796504,43997,1466.5666666666666
108,1466.6283892499998,43998.851677499995,43998,1466.6,1467.1782885,44015.348655,44015,1467.1666666666667,1468.71298075,44061.389422500004,44061,1468.7,1.0247478116943967,3,0,6,1,2,2,b'HB_6_frameB_foil.png',1469.7377285616944,44092.131856850836,44092,1469.7333333333333
109,1469.90136975,44097.041092499996,44097,1469.9,1470.4346067499998,44113.03820249999,44113,1470.4333333333334,1471.969816,44159.09448,44159,1471.9666666666667,1.3536783743911656,1,1,7,1,1,3,b'NB_11_frameB.png',1473.3234943743912,44199.704831231735,44199,1473.3
110,1473.45775725,44203.7327175,44203,1473.4333333333334,1473.9743134999999,44219.229405,44219,1473.9666666666667,1475.5088465,44265.265394999995,44265,1475.5,1.025191301916493,2,1,7,1,1,3,b'SB_1_frameA.png',1476.5340378019164,44296.02113405749,44296,1476.5333333333333
111,1476.5481705,44296.445115,44296,1476.5333333333333,1477.04806125,44311.4418375,44311,1477.0333333333333,1478.58185525,44357.4556575,44357,1478.5666666666666,1.408533891008119,3,1,3,2,2,2,b'HB_1_frameB.png',1479.990389141008,44399.711674230246,44399,1479.9666666666667
112,1480.0593589999999,44401.78077,44401,1480.0333333333333,1480.5591614999998,44416.77484499999,44416,1480.5333333333333,1482.0941845,44462.825534999996,44462,1482.0666666666666,0.8196422079781769,2,1,2,2,2,3,b'SB_9_frameA.png',1482.9138267079782,44487.41480123934,44487,1482.9
113,1482.9277782499998,44487.833347499996,44487,1482.9,1483.4776809999998,44504.330429999995,44504,1483.4666666666667,1485.0123265,44550.369795,44550,1485.0,1.354687233149889,1,0,7,1,2,3,b'NB_17_frameA_foil.png',1486.3670137331499,44591.010411994495,44591,1486.3666666666666
114,1486.48408725,44594.5226175,44594,1486.4666666666667,1487.0506417499998,44611.519252499995,44611,1487.0333333333333,1488.5852774999998,44657.558325,44657,1488.5666666666666,0.9811138677614508,3,0,4,2,1,1,b'HB_4_frameA_foil.png',1489.5663913677613,44686.99174103284,44686,1489.5333333333333
115,1489.68538825,44690.5616475,44690,1489.6666666666667,1490.2186104999998,44706.558314999995,44706,1490.2,1491.7528747499998,44752.586242499994,44752,1491.7333333333333,1.4616414984775474,3,1,4,2,2,1,b'HB_2_frameA.png',1493.2145162484774,44796.43548745432,44796,1493.2
116,1493.3399332499998,44800.19799749999,44800,1493.3333333333333,1493.856484,44815.69452,44815,1493.8333333333333,1495.3903255,44861.709765,44861,1495.3666666666666,1.8085334519273601,2,0,2,2,1,3,b'SB_3_frameB_foil.png',1497.1988589519274,44915.96576855782,44915,1497.1666666666667
117,1497.2658514999998,44917.975544999994,44917,1497.2333333333333,1497.7657339999998,44932.972019999994,44932,1497.7333333333333,1499.3003425,44979.010275,44979,1499.3,1.3566928287764313,1,1,6,1,1,2,b'NB_28_frameA.png',1500.6570353287764,45019.71105986329,45019,1500.6333333333334
118,1500.79588975,45023.8766925,45023,1500.7666666666667,1501.262467,45037.87401,45037,1501.2333333333333,1502.797268,45083.918040000004,45083,1502.7666666666667,0.8811758876545355,3,1,6,1,1,2,b'HB_3_frameB.png',1503.6784438876546,45110.35331662964,45110,1503.6666666666667
119,1503.74733975,45112.4201925,45112,1503.7333333333333,1504.34721775,45130.4165325,45130,1504.3333333333333,1505.881124,45176.43372,45176,1505.8666666666666,1.353917584332521,1,1,3,2,2,2,b'NB_17_frameB.png',1507.2350415843325,45217.05124752998,45217,1507.2333333333333
120,1507.3007415,45219.022245,45219,1507.3,1507.7673169999998,45233.01951,45233,1507.7666666666667,1509.3020777499999,45279.0623325,45279,1509.3,1.6251371998368995,3,0,7,1,2,3,b'HB_2_frameB_foil.png',1510.9272149498368,45327.816448495105,45327,1510.9
121,1511.00662375,45330.1987125,45330,1511.0,1511.5565179999999,45346.69553999999,45346,1511.5333333333333,1513.09041125,45392.7123375,45392,1513.0666666666666,1.6415944028703962,2,0,7,1,2,3,b'SB_1_frameB_foil.png',1514.7320056528704,45441.96016958611,45441,1514.7
122,1514.855588,45445.66764,45445,1514.8333333333333,1515.37214625,45461.1643875,45461,1515.3666666666666,1516.9073637499998,45507.22091249999,45507,1516.9,1.2353201524092583,3,1,3,2,2,2,b'HB_6_frameB.png',1518.142683902409,45544.28051707227,45544,1518.1333333333334
123,1518.23282525,45546.984757499995,45546,1518.2,1518.71606925,45561.4820775,45561,1518.7,1520.250846,45607.52538,45607,1520.2333333333333,1.3543573107453994,1,0,2,2,1,3,b'NB_18_frameB_foil.png',1521.6052033107453,45648.15609932236,45648,1521.6
124,1521.68989575,45650.6968725,45650,1521.6666666666667,1522.1731252499999,45665.1937575,45665,1522.1666666666667,1523.70737525,45711.2212575,45711,1523.7,1.2421279925329145,2,0,7,1,2,3,b'SB_6_frameB_foil.png',1524.949503242533,45748.48509727599,45748,1524.9333333333334
125,1525.1354,45754.062,45754,1525.1333333333334,1525.585274,45767.55822,45767,1525.5666666666666,1527.136998,45814.109939999995,45814,1527.1333333333334,1.9648288302414585,2,1,7,1,1,3,b'SB_5_frameA.png',1529.1018268302414,45873.05480490724,45873,1529.1
126,1529.1566477499998,45874.6994325,45874,1529.1333333333334,1529.6398775,45889.196325,45889,1529.6333333333334,1531.1745985,45935.237955,45935,1531.1666666666667,1.352576403558487,1,0,6,1,2,2,b'NB_7_frameA_foil.png',1532.5271749035585,45975.81524710675,45975,1532.5
127,1532.6455912499998,45979.3677375,45979,1532.6333333333334,1533.1954827499999,45995.864482499994,45995,1533.1666666666667,1534.7302379999999,46041.907139999996,46041,1534.7,1.354688690713374,1,0,7,1,2,3,b'NB_6_frameB_foil.png',1536.0849266907132,46082.5478007214,46082,1536.0666666666666
128,1536.1979864999998,46085.939594999996,46085,1536.1666666666667,1536.7312204999998,46101.936615,46101,1536.7,1538.2649872499999,46147.949617499995,46147,1538.2333333333333,0.25948573820642196,3,0,5,1,2,1,b'HB_5_frameB_foil.png',1538.5244729882063,46155.73418964619,46155,1538.5
129,1538.5728669999999,46157.18601,46157,1538.5666666666666,1539.156076,46174.68228,46174,1539.1333333333334,1540.69042625,46220.7127875,46220,1540.6666666666667,1.419900618304382,3,0,5,1,2,1,b'HB_3_frameA_foil.png',1542.1103268683044,46263.30980604913,46263,1542.1
130,1542.1251095,46263.753285,46263,1542.1,1542.708328,46281.24984,46281,1542.7,1544.24201475,46327.260442499995,46327,1544.2333333333333,1.6115828483743826,2,1,6,1,1,2,b'SB_2_frameA.png',1545.8535975983743,46375.60792795123,46375,1545.8333333333333
131,1545.8685552499999,46376.0566575,46376,1545.8666666666666,1546.38513475,46391.5540425,46391,1546.3666666666666,1547.91899175,46437.5697525,46437,1547.9,1.8108549642493017,3,0,2,2,1,3,b'HB_3_frameB_foil.png',1549.7298467142493,46491.89540142748,46491,1549.7
132,1549.79193025,46493.757907499996,46493,1549.7666666666667,1550.30849375,46509.2548125,46509,1550.3,1551.8428637499999,46555.285912499996,46555,1551.8333333333333,1.976260111478041,3,0,4,2,1,1,b'HB_2_frameB_foil.png',1553.819123861478,46614.57371584434,46614,1553.8
133,1553.956645,46618.69935,46618,1553.9333333333334,1554.5064977499999,46635.194932499995,46635,1554.5,1556.04026375,46681.207912499995,46681,1556.0333333333333,1.2970738756266655,2,0,6,1,2,2,b'SB_9_frameB_foil.png',1557.3373376256266,46720.120128768795,46720,1557.3333333333333
134,1557.35236375,46720.5709125,46720,1557.3333333333333,1557.91890475,46737.5671425,46737,1557.9,1559.45329625,46783.5988875,46783,1559.4333333333334,1.2824501032446278,2,0,2,2,1,3,b'SB_5_frameB_foil.png',1560.7357463532446,46822.072390597335,46822,1560.7333333333333
135,1560.79865125,46823.9595375,46823,1560.7666666666667,1561.3485489999998,46840.45647,46840,1561.3333333333333,1562.8824135,46886.472405,46886,1562.8666666666666,1.4398127253953135,3,0,4,2,1,1,b'HB_3_frameB_foil.png',1564.3222262253953,46929.66678676186,46929,1564.3
136,1564.4846372499999,46934.5391175,46934,1564.4666666666667,1565.0345315,46951.035944999996,46951,1565.0333333333333,1566.56908875,46997.0726625,46997,1566.5666666666666,1.2560645778576145,2,1,7,1,1,3,b'SB_1_frameA.png',1567.8251533278576,47034.75459983573,47034,1567.8
137,1567.87437475,47036.2312425,47036,1567.8666666666666,1568.4075927499998,47052.22778249999,47052,1568.4,1569.94261425,47098.278427499994,47098,1569.9333333333334,0.9990161426103441,2,0,7,1,2,3,b'SB_4_frameA_foil.png',1570.9416303926103,47128.248911778304,47128,1570.9333333333334
138,1571.00914775,47130.2744325,47130,1571.0,1571.5090437499998,47145.271312499994,47145,1571.5,1573.0439334999999,47191.318004999994,47191,1573.0333333333333,2.659855308040278,2,0,7,1,2,3,b'SB_9_frameA_foil.png',1575.7037888080401,47271.1136642412,47271,1575.7
139,1575.8798399999998,47276.39519999999,47276,1575.8666666666666,1576.39639825,47291.8919475,47291,1576.3666666666666,1577.9305534999999,47337.916605,47337,1577.9,2.0870762720151106,3,0,2,2,1,3,b'HB_7_frameB_foil.png',1580.017629772015,47400.52889316045,47400,1580.0
140,1580.03226825,47400.9680475,47400,1580.0,1580.53216925,47415.9650775,47415,1580.5,1582.06645025,47461.993507499996,47461,1582.0333333333333,0.48738448703079484,2,0,2,2,1,3,b'SB_1_frameA_foil.png',1582.5538347370307,47476.61504211092,47476,1582.5333333333333
141,1582.698885,47480.96655,47480,1582.6666666666667,1583.248772,47497.46316,47497,1583.2333333333333,1584.782871,47543.48613,47543,1584.7666666666667,1.592602186705335,2,0,3,2,1,2,b'SB_5_frameA_foil.png',1586.3754731867052,47591.26419560116,47591,1586.3666666666666
142,1586.39009075,47591.7027225,47591,1586.3666666666666,1586.8732845,47606.198534999996,47606,1586.8666666666666,1588.4071307499999,47652.2139225,47652,1588.4,1.4764547079976182,2,1,6,1,1,2,b'SB_9_frameB.png',1589.8835854579975,47696.50756373993,47696,1589.8666666666666
143,1589.9884379999999,47699.653139999995,47699,1589.9666666666667,1590.4717417499999,47714.1522525,47714,1590.4666666666667,1592.0062974999998,47760.188924999995,47760,1592.0,1.3514133127755485,1,0,7,1,2,3,b'NB_1_frameA_foil.png',1593.3577108127754,47800.73132438326,47800,1593.3333333333333
144,1593.46300525,47803.8901575,47803,1593.4333333333334,1593.9962477499998,47819.88743249999,47819,1593.9666666666667,1595.5309765,47865.929295,47865,1595.5,1.6793183308036532,3,1,7,1,1,3,b'HB_4_frameA.png',1597.2102948308036,47916.30884492411,47916,1597.2
145,1597.22436,47916.7308,47916,1597.2,1597.7242875,47931.728624999996,47931,1597.7,1599.258417,47977.75251,47977,1599.2333333333333,1.3525344256340759,1,0,2,2,1,3,b'NB_28_frameB_foil.png',1600.610951425634,48018.32854276902,48018,1600.6
146,1600.6741332499998,48020.2239975,48020,1600.6666666666667,1601.1906964999998,48035.72089499999,48035,1601.1666666666667,1602.7244254999998,48081.73276499999,48081,1602.7,2.4115656561334617,3,0,6,1,2,2,b'HB_5_frameB_foil.png',1605.1359911561333,48154.079734684,48154,1605.1333333333334
147,1605.1936445,48155.809335,48155,1605.1666666666667,1605.69351725,48170.8055175,48170,1605.6666666666667,1607.22836125,48216.8508375,48216,1607.2,1.4586900869617239,3,0,7,1,2,3,b'HB_1_frameB_foil.png',1608.6870513369618,48260.611540108854,48260,1608.6666666666667
148,1608.70121625,48261.0364875,48261,1608.7,1609.2344552499999,48277.0336575,48277,1609.2333333333333,1610.76906225,48323.071867499995,48323,1610.7666666666667,0.9176616375771118,2,0,7,1,2,3,b'SB_6_frameA_foil.png',1611.686723887577,48350.60171662731,48350,1611.6666666666667
149,1611.700936,48351.02808,48351,1611.7,1612.21749875,48366.5249625,48366,1612.2,1613.7512705,48412.538114999996,48412,1613.7333333333333,1.5693706235324498,3,0,5,1,2,1,b'HB_4_frameB_foil.png',1615.3206411235324,48459.61923370597,48459,1615.3
150,1615.335631,48460.068929999994,48460,1615.3333333333333,1615.902186,48477.06558,48477,1615.9,1617.435847,48523.07541,48523,1617.4333333333334,1.5467463298409712,3,0,7,1,2,3,b'HB_1_frameA_foil.png',1618.982593329841,48569.47779989523,48569,1618.9666666666667
151,1619.08612325,48572.5836975,48572,1619.0666666666666,1619.5860185,48587.580555,48587,1619.5666666666666,1621.12036275,48633.6108825,48633,1621.1,1.3517909125803271,1,0,2,2,1,3,b'NB_24_frameB_foil.png',1622.4721536625802,48674.16460987741,48674,1622.4666666666667
152,1622.60687325,48678.2061975,48678,1622.6,1623.12343625,48693.7030875,48693,1623.1,1624.65790475,48739.7371425,48739,1624.6333333333334,1.609738255821867,3,1,6,1,1,2,b'HB_5_frameB.png',1626.2676430058218,48788.02929017466,48788,1626.2666666666667
153,1626.2820835,48788.462505,48788,1626.2666666666667,1626.7653245,48802.959735,48802,1626.7333333333333,1628.2995615,48848.986845,48848,1628.2666666666667,1.352213716643746,1,1,7,1,1,3,b'NB_27_frameB.png',1629.6517752166437,48889.55325649931,48889,1629.6333333333334
154,1629.66619225,48889.9857675,48889,1629.6333333333334,1630.13277,48903.9831,48903,1630.1,1631.66754625,48950.0263875,48950,1631.6666666666667,1.3558055881876498,1,0,2,2,1,3,b'NB_14_frameB_foil.png',1633.0233518381876,48990.70055514563,48990,1633.0
155,1633.1333009999998,48993.99902999999,48993,1633.1,1633.59987475,49007.9962425,49007,1633.5666666666666,1635.133736,49054.01208,49054,1635.1333333333334,1.4107358765322715,2,1,2,2,2,3,b'SB_4_frameA.png',1636.5444718765323,49096.33415629597,49096,1636.5333333333333
156,1636.5593817499998,49096.78145249999,49096,1636.5333333333333,1637.0592757499999,49111.7782725,49111,1637.0333333333333,1638.5932329999998,49157.796989999995,49157,1638.5666666666666,1.7516133344324771,3,0,5,1,2,1,b'HB_1_frameA_foil.png',1640.3448463344323,49210.34539003297,49210,1640.3333333333333
157,1640.48528625,49214.558587499996,49214,1640.4666666666667,1641.0351895,49231.055685,49231,1641.0333333333333,1642.5694905,49277.084715000005,49277,1642.5666666666666,1.6432911407755455,2,0,6,1,2,2,b'SB_3_frameA_foil.png',1644.2127816407756,49326.38344922327,49326,1644.2
158,1644.2277877499998,49326.8336325,49326,1644.2,1644.7276765,49341.830295,49341,1644.7,1646.26231125,49387.8693375,49387,1646.2333333333333,1.872730363465962,3,0,5,1,2,1,b'HB_5_frameA_foil.png',1648.135041613466,49444.05124840398,49444,1648.1333333333334
159,1648.2852265,49448.556795,49448,1648.2666666666667,1648.83511875,49465.0535625,49465,1648.8333333333333,1650.369042,49511.071260000004,49511,1650.3666666666666,1.9195835714344867,2,0,4,2,1,1,b'SB_2_frameA_foil.png',1652.2886255714345,49568.65876714304,49568,1652.2666666666667
160,1652.368393,49571.05179,49571,1652.3666666666666,1652.93494175,49588.0482525,49588,1652.9333333333334,1654.4694115,49634.082345,49634,1654.4666666666667,1.3527118016063469,1,1,6,1,1,2,b'NB_9_frameB.png',1655.8221233016063,49674.66369904819,49674,1655.8
161,1655.8365737499998,49675.0972125,49675,1655.8333333333333,1656.3864684999999,49691.594054999994,49691,1656.3666666666666,1657.9201805,49737.605415,49737,1657.9,1.5229621237376705,2,1,2,2,2,3,b'SB_1_frameB.png',1659.4431426237377,49783.29427871213,49783,1659.4333333333334
162,1659.49944725,49784.9834175,49784,1659.4666666666667,1659.98268525,49799.4805575,49799,1659.9666666666667,1661.516826,49845.50478,49845,1661.5,1.3523999876051676,1,1,3,2,2,2,b'NB_23_frameB.png',1662.8692259876052,49886.07677962816,49886,1662.8666666666666
163,1662.944006,49888.320179999995,49888,1662.9333333333334,1663.4772295,49904.316885,49904,1663.4666666666667,1665.0108989999999,49950.326969999995,49950,1665.0,0.8107515492738457,3,1,4,2,2,1,b'HB_2_frameA.png',1665.8216505492737,49974.64951647821,49974,1665.8
164,1665.8376775,49975.130325,49975,1665.8333333333333,1666.3375744999998,49990.12723499999,49990,1666.3333333333333,1667.872318,50036.169539999995,50036,1667.8666666666666,1.3544572676182725,1,0,2,2,1,3,b'NB_26_frameB_foil.png',1669.2267752676182,50076.80325802854,50076,1669.2
165,1669.2412325,50077.236975,50077,1669.2333333333333,1669.774453,50093.23359,50093,1669.7666666666667,1671.3083245,50139.249735,50139,1671.3,1.7264047557546292,2,1,3,2,2,2,b'SB_7_frameA.png',1673.0347292557547,50191.04187767264,50191,1673.0333333333333
166,1673.0495717499998,50191.48715249999,50191,1673.0333333333333,1673.5828017499998,50207.484052499996,50207,1673.5666666666666,1675.1174389999999,50253.52316999999,50253,1675.1,2.2343131275993073,2,0,6,1,2,2,b'SB_8_frameB_foil.png',1677.3517521275992,50320.55256382797,50320,1677.3333333333333
167,1677.4509289999999,50323.52787,50323,1677.4333333333334,1677.9841629999999,50339.52488999999,50339,1677.9666666666667,1679.5190102499998,50385.5703075,50385,1679.5,1.352555921766907,1,1,7,1,1,3,b'NB_3_frameB.png',1680.8715661717667,50426.146985153006,50426,1680.8666666666666
168,1680.8857045,50426.571135,50426,1680.8666666666666,1681.43559125,50443.0677375,50443,1681.4333333333334,1682.97021825,50489.1065475,50489,1682.9666666666667,1.3534524199785665,1,0,3,2,1,2,b'NB_8_frameB_foil.png',1684.3236706699786,50529.71012009936,50529,1684.3
169,1684.3381777499999,50530.1453325,50530,1684.3333333333333,1684.871395,50546.14185,50546,1684.8666666666666,1686.40550825,50592.1652475,50592,1686.4,0.6513010094931815,3,1,6,1,1,2,b'HB_6_frameA.png',1687.056809259493,50611.7042777848,50611,1687.0333333333333
170,1687.16997675,50615.0993025,50615,1687.1666666666667,1687.68654475,50630.5963425,50630,1687.6666666666667,1689.220163,50676.60489,50676,1689.2,1.3537790051632328,1,1,6,1,1,2,b'NB_16_frameA.png',1690.5739420051632,50717.2182601549,50717,1690.5666666666666
171,1690.58898475,50717.6695425,50717,1690.5666666666666,1691.1222007499998,50733.666022499994,50733,1691.1,1692.6566185,50779.698554999995,50779,1692.6333333333334,1.351778863245272,1,1,2,2,2,3,b'NB_20_frameA.png',1694.0083973632452,50820.25192089735,50820,1694.0
172,1694.0404099999998,50821.21229999999,50821,1694.0333333333333,1694.55697825,50836.7093475,50836,1694.5333333333333,1696.091452,50882.743559999995,50882,1696.0666666666666,1.3525009034347022,1,1,7,1,1,3,b'NB_29_frameB.png',1697.4439529034346,50923.31858710304,50923,1697.4333333333334
173,1697.45819325,50923.7457975,50923,1697.4333333333334,1698.04141425,50941.242427499994,50941,1698.0333333333333,1699.5755622499998,50987.266867499995,50987,1699.5666666666666,2.012487725209212,3,1,4,2,2,1,b'HB_2_frameA.png',1701.588049975209,51047.64149925627,51047,1701.5666666666666
174,1701.78417,51053.5251,51053,1701.7666666666667,1702.26736025,51068.0208075,51068,1702.2666666666667,1703.8019224999998,51114.057675,51114,1703.8,1.355708838236751,1,0,7,1,2,3,b'NB_30_frameB_foil.png',1705.1576313382366,51154.7289401471,51154,1705.1333333333334
175,1705.2080912499998,51156.2427375,51156,1705.2,1705.70799775,51171.2399325,51171,1705.7,1707.2421345,51217.264035,51217,1707.2333333333333,1.4267447974270908,2,1,2,2,2,3,b'SB_3_frameA.png',1708.668879297427,51260.06637892281,51260,1708.6666666666667
176,1708.68362325,51260.5086975,51260,1708.6666666666667,1709.1668625,51275.005875,51275,1709.1666666666667,1710.70154925,51321.0464775,51321,1710.7,1.353193500006455,1,1,7,1,1,3,b'NB_21_frameB.png',1712.0547427500064,51361.642282500194,51361,1712.0333333333333
177,1712.0960982499998,51362.882947499995,51362,1712.0666666666666,1712.64517375,51379.3552125,51379,1712.6333333333334,1714.14273975,51424.282192499995,51424,1714.1333333333334,1.2253672742663184,2,1,4,2,2,1,b'SB_30_frameA.png',1715.3681070242662,51461.043210727985,51461,1715.3666666666666
178,1715.44666175,51463.3998525,51463,1715.4333333333334,1716.0558695,51481.676085,51481,1716.0333333333333,1717.594932,51527.84796,51527,1717.5666666666666,0.8538374693162041,2,0,2,2,1,3,b'SB_30_frameB_foil.png',1718.4487694693162,51553.463084079485,51553,1718.4333333333334
179,1718.5247709999999,51555.743129999995,51555,1718.5,1719.0711892499999,51572.135677499995,51572,1719.0666666666666,1720.5770559999999,51617.31168,51617,1720.5666666666666,1.821238095712033,3,1,5,1,1,1,b'HB_30_frameB.png',1722.398294095712,51671.94882287136,51671,1722.3666666666666
180,1722.437402,51673.12206,51673,1722.4333333333334,1722.986168,51689.58504,51689,1722.9666666666667,1724.54556125,51736.3668375,51736,1724.5333333333333,0.8831095706991618,3,0,2,2,1,3,b'HB_30_frameA_foil.png',1725.4286708206992,51762.86012462097,51762,1725.4
