trial_num,fixcross_time,fixation_HZ,fixation_bin,fixation_regarded,start_time,Fstart_HZ,Fstart_bin,Fstart_regarded,stop_time,Fstop_HZ,Fstop_bin,Fstop_regarded,RT,boundary_type,stimuli_type,resp_value,old_new,accuracy,confidence,frameName,response_time,response_HZ,response_bin,response_regarded
1,1137.03887425,34111.1662275,34111,1137.0333333333333,1137.5223435,34125.670305,34125,1137.5,1139.058217,34171.74651,34171,1139.0333333333333,2.045052812900394,1,1,3,2,2,2,b'NB_16_frameA.png',1141.1032698129004,34233.09809438701,34233,1141.1
2,1141.119547,34233.58641,34233,1141.1,1141.5696825,34247.090475,34247,1141.5666666666666,1143.103893,34293.11679,34293,1143.1,1.2844784292392433,2,0,6,1,2,2,b'SB_1_frameB_foil.png',1144.3883714292392,34331.65114287718,34331,1144.3666666666666
3,1144.4024775,34332.074325,34332,1144.4,1144.8525665,34345.576994999996,34345,1144.8333333333333,1146.38673,34391.6019,34391,1146.3666666666666,1.342424507252872,2,1,3,2,2,2,b'SB_2_frameB.png',1147.7291545072528,34431.87463521759,34431,1147.7
4,1147.735792,34432.07376,34432,1147.7333333333333,1148.26931825,34448.0795475,34448,1148.2666666666667,1149.803487,34494.104609999995,34494,1149.8,1.7785247163847089,1,0,6,1,2,2,b'NB_15_frameA_foil.png',1151.5820117163846,34547.460351491536,34547,1151.5666666666666
5,1151.5950679999999,34547.85204,34547,1151.5666666666666,1152.04518325,34561.3554975,34561,1152.0333333333333,1153.57948575,34607.3845725,34607,1153.5666666666666,1.4414048613980412,2,0,6,1,2,2,b'SB_4_frameA_foil.png',1155.020890611398,34650.62671834194,34650,1155.0
6,1155.03035675,34650.9107025,34650,1155.0,1155.56390925,34666.917277500004,34666,1155.5333333333333,1157.0981645,34712.944935,34712,1157.0666666666666,1.9480682439170778,1,0,6,1,2,2,b'NB_24_frameB_foil.png',1159.046232743917,34771.38698231751,34771,1159.0333333333333
7,1159.05074575,34771.5223725,34771,1159.0333333333333,1159.517568,34785.52704,34785,1159.5,1161.05178075,34831.5534225,34831,1161.0333333333333,2.008840138092637,1,0,6,1,2,2,b'NB_10_frameB_foil.png',1163.0606208880927,34891.81862664278,34891,1163.0333333333333
8,1163.06641475,34891.9924425,34891,1163.0333333333333,1163.5665884999999,34906.997655,34906,1163.5333333333333,1165.100976,34953.029279999995,34953,1165.1,1.3005641838535666,2,0,6,1,2,2,b'SB_9_frameA_foil.png',1166.4015401838535,34992.0462055156,34992,1166.4
9,1166.417233,34992.51699,34992,1166.4,1166.98405725,35009.5217175,35009,1166.9666666666667,1168.518233,35055.54699,35055,1168.5,1.8395375753752887,1,0,6,1,2,2,b'NB_9_frameA_foil.png',1170.3577705753753,35110.73311726126,35110,1170.3333333333333
10,1170.3621389999998,35110.86416999999,35110,1170.3333333333333,1170.8289399999999,35124.8682,35124,1170.8,1172.36316425,35170.8949275,35170,1172.3333333333333,1.9676385070197284,1,0,6,1,2,2,b'NB_21_frameA_foil.png',1174.3308027570197,35229.92408271059,35229,1174.3
11,1174.344012,35230.32036,35230,1174.3333333333333,1174.84412325,35245.323697499996,35245,1174.8333333333333,1176.37826725,35291.3480175,35291,1176.3666666666666,1.3926182170398533,3,1,3,2,2,2,b'HB_2_frameA.png',1177.7708854670398,35333.126564011196,35333,1177.7666666666667
12,1177.7804965,35333.414895,35333,1177.7666666666667,1178.263999,35347.91997,35347,1178.2333333333333,1179.798207,35393.94621,35393,1179.7666666666667,1.525796034373343,3,1,3,2,2,2,b'HB_1_frameA.png',1181.3240030343734,35439.7200910312,35439,1181.3
13,1181.3401945,35440.205835,35440,1181.3333333333333,1181.84032325,35455.2096975,35455,1181.8333333333333,1183.374554,35501.236619999996,35501,1183.3666666666666,1.4183486332185566,2,0,6,1,2,2,b'SB_8_frameA_foil.png',1184.7929026332185,35543.78707899655,35543,1184.7666666666667
14,1184.803478,35544.10434,35544,1184.8,1185.25362825,35557.6088475,35557,1185.2333333333333,1186.7878375,35603.635125,35603,1186.7666666666667,1.9097134922631085,1,1,3,2,2,2,b'NB_10_frameA.png',1188.6975509922631,35660.926529767894,35660,1188.6666666666667
15,1188.71015975,35661.3047925,35661,1188.7,1189.17698325,35675.3094975,35675,1189.1666666666667,1190.71121525,35721.336457499994,35721,1190.7,1.899563126731664,1,0,6,1,2,2,b'NB_13_frameA_foil.png',1192.6107783767316,35778.323351301944,35778,1192.6
16,1192.62434975,35778.7304925,35778,1192.6,1193.091176,35792.73527999999,35792,1193.0666666666666,1194.6253335,35838.760005,35838,1194.6,1.4484417922794819,3,0,6,1,2,2,b'HB_4_frameA_foil.png',1196.0737752922794,35882.21325876838,35882,1196.0666666666666
17,1196.08817375,35882.6452125,35882,1196.0666666666666,1196.55494525,35896.6483575,35896,1196.5333333333333,1198.0891915,35942.675745,35942,1198.0666666666666,1.8090336732566357,1,1,3,2,2,2,b'NB_23_frameB.png',1199.8982251732566,35996.9467551977,35996,1199.8666666666666
18,1199.9009449999999,35997.02834999999,35997,1199.9,1200.36778025,36011.0334075,36011,1200.3666666666666,1201.90203825,36057.061147500004,36057,1201.9,1.44678665837273,3,0,6,1,2,2,b'HB_2_frameB_foil.png',1203.3488249083728,36100.464747251186,36100,1203.3333333333333
19,1203.35311075,36100.593322500004,36100,1203.3333333333333,1203.85327975,36115.5983925,36115,1203.8333333333333,1205.387407,36161.62221,36161,1205.3666666666666,1.6222692229785025,3,1,3,2,2,2,b'HB_5_frameA.png',1207.0096762229784,36210.29028668936,36210,1207.0
20,1207.0209567499999,36210.6287025,36210,1207.0,1207.5377959999998,36226.133879999994,36226,1207.5333333333333,1209.07194475,36272.1583425,36272,1209.0666666666666,1.2743207602761686,2,0,6,1,2,2,b'SB_5_frameA_foil.png',1210.3462655102762,36310.387965308284,36310,1210.3333333333333
21,1210.36527975,36310.9583925,36310,1210.3333333333333,1210.86539825,36325.9619475,36325,1210.8333333333333,1212.39960525,36371.988157499996,36371,1212.3666666666666,1.6556159895844758,3,0,6,1,2,2,b'HB_1_frameB_foil.png',1214.0552212395844,36421.65663718753,36421,1214.0333333333333
22,1214.06841525,36422.0524575,36422,1214.0666666666666,1214.58519175,36437.5557525,36437,1214.5666666666666,1216.1194715,36483.584145,36483,1216.1,1.5148398294113576,3,0,6,1,2,2,b'HB_3_frameB_foil.png',1217.6343113294113,36529.02933988234,36529,1217.6333333333334
23,1217.651817,36529.55451,36529,1217.6333333333334,1218.151948,36544.55844,36544,1218.1333333333334,1219.6862684999999,36590.58805499999,36590,1219.6666666666667,1.5817841002717614,3,1,3,2,2,2,b'HB_1_frameB.png',1221.2680526002716,36638.041578008146,36638,1221.2666666666667
24,1221.273817,36638.21451,36638,1221.2666666666667,1221.773934,36653.21802,36653,1221.7666666666667,1223.3080962499998,36699.2428875,36699,1223.3,1.458359245210886,2,0,6,1,2,2,b'SB_2_frameA_foil.png',1224.7664554952107,36742.99366485632,36742,1224.7333333333333
25,1224.783546,36743.50638,36743,1224.7666666666667,1225.2503717499999,36757.511152499996,36757,1225.2333333333333,1226.7845825,36803.537475,36803,1226.7666666666667,1.7532059410586953,3,1,3,2,2,2,b'HB_1_frameB.png',1228.5377884410586,36856.13365323176,36856,1228.5333333333333
26,1228.5509427499999,36856.528282499996,36856,1228.5333333333333,1229.03442875,36871.0328625,36871,1229.0333333333333,1230.56875425,36917.062627499996,36917,1230.5666666666666,1.418183630798012,3,1,3,2,2,2,b'HB_1_frameB.png',1231.986937880798,36959.608136423936,36959,1231.9666666666667
27,1232.0042752499999,36960.12825749999,36960,1232.0,1232.471042,36974.131259999995,36974,1232.4666666666667,1234.0052779999999,37020.158339999994,37020,1234.0,1.2555791111662984,2,1,3,2,2,2,b'SB_2_frameA.png',1235.2608571111662,37057.82571333498,37057,1235.2333333333333
28,1235.26440725,37057.9322175,37057,1235.2333333333333,1235.797881,37073.93643,37073,1235.7666666666667,1237.3320495,37119.961485,37119,1237.3,2.0709198783151805,1,0,6,1,2,2,b'NB_8_frameB_foil.png',1239.4029693783152,37182.089081349455,37182,1239.4
29,1239.4108615,37182.325845,37182,1239.4,1239.86101575,37195.8304725,37195,1239.8333333333333,1241.395182,37241.85546,37241,1241.3666666666666,1.975847376510501,1,0,6,1,2,2,b'NB_22_frameB_foil.png',1243.3710293765105,37301.130881295314,37301,1243.3666666666666
30,1243.377743,37301.33229,37301,1243.3666666666666,1243.844547,37315.336409999996,37315,1243.8333333333333,1245.3787714999999,37361.363144999996,37361,1245.3666666666666,1.1714249993674457,2,0,6,1,2,2,b'SB_1_frameA_foil.png',1246.5501964993673,37396.50589498102,37396,1246.5333333333333
31,1246.55786025,37396.7358075,37396,1246.5333333333333,1247.09130525,37412.7391575,37412,1247.0666666666666,1248.6256795,37458.770384999996,37458,1248.6,1.592761568725109,3,0,6,1,2,2,b'HB_3_frameA_foil.png',1250.218441068725,37506.55323206175,37506,1250.2
32,1250.229778,37506.893339999995,37506,1250.2,1250.69652825,37520.8958475,37520,1250.6666666666667,1252.23087025,37566.926107499996,37566,1252.2,1.616566908545792,3,1,3,2,2,2,b'HB_5_frameB.png',1253.8474371585457,37615.42311475637,37615,1253.8333333333333
33,1253.86095925,37615.8287775,37615,1253.8333333333333,1254.37775675,37631.332702499996,37631,1254.3666666666666,1255.91195275,37677.3585825,37677,1255.9,1.4803046197630465,3,1,3,2,2,2,b'HB_6_frameA.png',1257.392257369763,37721.76772109289,37721,1257.3666666666666
34,1257.4067129999999,37722.201389999995,37722,1257.4,1257.85683125,37735.7049375,37735,1257.8333333333333,1259.39104825,37781.7314475,37781,1259.3666666666666,1.4565517455339432,2,1,3,2,2,2,b'SB_1_frameA.png',1260.847599995534,37825.42799986602,37825,1260.8333333333333
35,1260.86087825,37825.8263475,37825,1260.8333333333333,1261.39437625,37841.831287500005,37841,1261.3666666666666,1262.928592,37887.85776,37887,1262.9,1.9185509528033435,1,1,3,2,2,2,b'NB_8_frameA.png',1264.8471429528033,37945.4142885841,37945,1264.8333333333333
36,1264.8642042499998,37945.926127499995,37945,1264.8333333333333,1265.3643534999999,37960.930604999994,37960,1265.3333333333333,1266.898598,38006.95794,38006,1266.8666666666666,1.4302341239526868,2,0,6,1,2,2,b'SB_5_frameB_foil.png',1268.3288321239527,38049.86496371858,38049,1268.3
37,1268.341459,38050.24377,38050,1268.3333333333333,1268.8249145,38064.747435,38064,1268.8,1270.35904025,38110.771207499994,38110,1270.3333333333333,1.481987048406154,3,0,6,1,2,2,b'HB_2_frameB_foil.png',1271.841027298406,38155.23081895218,38155,1271.8333333333333
38,1271.853664,38155.60992,38155,1271.8333333333333,1272.353813,38170.614389999995,38170,1272.3333333333333,1273.88799625,38216.6398875,38216,1273.8666666666666,1.2460257411003113,2,1,3,2,2,2,b'SB_7_frameA.png',1275.1340219911003,38254.02065973301,38254,1275.1333333333334
39,1275.1418597499999,38254.25579249999,38254,1275.1333333333334,1275.60869125,38268.2607375,38268,1275.6,1277.1429074999999,38314.28722499999,38314,1277.1333333333334,1.5214172736741602,3,1,3,2,2,2,b'HB_5_frameA.png',1278.664324773674,38359.92974321022,38359,1278.6333333333334
40,1278.67174075,38360.1522225,38360,1278.6666666666667,1279.18853675,38375.6561025,38375,1279.1666666666667,1280.7228767499998,38421.6863025,38421,1280.7,1.2372742057777941,2,0,6,1,2,2,b'SB_3_frameA_foil.png',1281.9601509557776,38458.80452867333,38458,1281.9333333333334
41,1281.97066875,38459.1200625,38459,1281.9666666666667,1282.50414525,38475.1243575,38475,1282.5,1284.0383709999999,38521.15113,38521,1284.0333333333333,1.9450185792520642,1,1,3,2,2,2,b'NB_13_frameB.png',1285.983389579252,38579.50168737756,38579,1285.9666666666667
42,1285.99786925,38579.936077499995,38579,1285.9666666666667,1286.5313175,38595.939524999994,38595,1286.5,1288.0655897499998,38641.967692499995,38641,1288.0333333333333,2.079107773024589,1,1,3,2,2,2,b'NB_15_frameB.png',1290.1446975230244,38704.34092569073,38704,1290.1333333333334
43,1290.15453725,38704.6361175,38704,1290.1333333333334,1290.6879764999999,38720.63929499999,38720,1290.6666666666667,1292.22220425,38766.6661275,38766,1292.2,1.4870421201922,2,0,6,1,2,2,b'SB_6_frameA_foil.png',1293.7092463701922,38811.27739110577,38811,1293.7
44,1293.7229292499999,38811.68787749999,38811,1293.7,1294.239713,38827.19139,38827,1294.2333333333333,1295.7739075,38873.217225,38873,1295.7666666666667,1.897774106822908,1,0,6,1,2,2,b'NB_19_frameA_foil.png',1297.6716816068229,38930.15044820469,38930,1297.6666666666667
45,1297.6815195,38930.445584999994,38930,1297.6666666666667,1298.1316514999999,38943.949544999996,38943,1298.1,1299.6658539999999,38989.97562,38989,1299.6333333333334,1.847134405747056,1,1,3,2,2,2,b'NB_2_frameA.png',1301.512988405747,39045.38965217241,39045,1301.5
46,1301.526296,39045.78888,39045,1301.5,1302.04313275,39061.2939825,39061,1302.0333333333333,1303.57734775,39107.3204325,39107,1303.5666666666666,1.273436198476702,2,1,3,2,2,2,b'SB_5_frameA.png',1304.8507839484766,39145.5235184543,39145,1304.8333333333333
47,1304.8554132499999,39145.6623975,39145,1304.8333333333333,1305.3555227499999,39160.665682499995,39160,1305.3333333333333,1306.88974175,39206.6922525,39206,1306.8666666666666,1.336763424333185,2,1,3,2,2,2,b'SB_6_frameB.png',1308.2265051743332,39246.79515522999,39246,1308.2
48,1308.2334779999999,39247.00434,39247,1308.2333333333333,1308.7503212499998,39262.50963749999,39262,1308.7333333333333,1310.2845304999998,39308.53591499999,39308,1310.2666666666667,1.3868629750795662,3,0,6,1,2,2,b'HB_2_frameA_foil.png',1311.6713934750794,39350.14180425238,39350,1311.6666666666667
49,1311.67611875,39350.28356249999,39350,1311.6666666666667,1312.14293425,39364.2880275,39364,1312.1333333333334,1313.67713325,39410.3139975,39410,1313.6666666666667,1.7942445357330143,3,1,3,2,2,2,b'HB_4_frameA.png',1315.471377785733,39464.14133357199,39464,1315.4666666666667
50,1315.48108325,39464.4324975,39464,1315.4666666666667,1315.947886,39478.436579999994,39478,1315.9333333333334,1317.48216475,39524.4649425,39524,1317.4666666666667,1.9672380187548697,1,1,3,2,2,2,b'NB_25_frameB.png',1319.449402768755,39583.48208306265,39583,1319.4333333333334
51,1319.4600225,39583.800675,39583,1319.4333333333334,1319.943471,39598.304130000004,39598,1319.9333333333334,1321.47768025,39644.330407500005,39644,1321.4666666666667,1.5259409872815013,3,0,6,1,2,2,b'HB_2_frameB_foil.png',1323.0036212372815,39690.10863711845,39690,1323.0
52,1323.021125,39690.63375,39690,1323.0,1323.504584,39705.137520000004,39705,1323.5,1325.038791,39751.16373,39751,1325.0333333333333,1.4588412283919752,2,1,3,2,2,2,b'SB_1_frameA.png',1326.497632228392,39794.92896685176,39794,1326.4666666666667
53,1326.5065984999999,39795.197954999996,39795,1326.5,1326.990112,39809.70336,39809,1326.9666666666667,1328.5243575,39855.730725,39855,1328.5,1.3852449283003807,3,0,6,1,2,2,b'HB_8_frameA_foil.png',1329.9096024283003,39897.28807284901,39897,1329.9
54,1329.92309775,39897.692932499995,39897,1329.9,1330.456581,39913.69743,39913,1330.4333333333334,1331.99076075,39959.7228225,39959,1331.9666666666667,1.3161785542033613,2,0,6,1,2,2,b'SB_3_frameB_foil.png',1333.3069393042033,39999.2081791261,39999,1333.3
55,1333.31148525,39999.3445575,39999,1333.3,1333.7782705,40013.348115,40013,1333.7666666666667,1335.3124759999998,40059.374279999996,40059,1335.3,2.0225378931500018,1,0,6,1,2,2,b'NB_3_frameA_foil.png',1337.3350138931498,40120.0504167945,40120,1337.3333333333333
56,1337.340283,40120.20849,40120,1337.3333333333333,1337.80707975,40134.2123925,40134,1337.8,1339.34130775,40180.2392325,40180,1339.3333333333333,1.190965844783932,2,0,6,1,2,2,b'SB_8_frameB_foil.png',1340.5322735947839,40215.968207843514,40215,1340.5
57,1340.5405855,40216.217565,40216,1340.5333333333333,1341.024041,40230.721229999996,40230,1341.0,1342.5583884999999,40276.75165499999,40276,1342.5333333333333,1.8807836663909256,1,0,6,1,2,2,b'NB_2_frameB_foil.png',1344.4391721663908,40333.17516499172,40333,1344.4333333333334
58,1344.4482424999999,40333.447275,40333,1344.4333333333334,1344.98177225,40349.453167499996,40349,1344.9666666666667,1346.51594775,40395.4784325,40395,1346.5,1.2773932525888085,2,1,3,2,2,2,b'SB_2_frameB.png',1347.7933410025887,40433.800230077664,40433,1347.7666666666667
59,1347.8075485,40434.226454999996,40434,1347.8,1348.32434625,40449.7303875,40449,1348.3,1349.85850775,40495.7552325,40495,1349.8333333333333,1.7819372490048409,1,0,6,1,2,2,b'NB_26_frameB_foil.png',1351.6404449990048,40549.213349970145,40549,1351.6333333333334
60,1351.65889,40549.7667,40549,1351.6333333333334,1352.125673,40563.77019,40563,1352.1,1353.6598534999998,40609.79560499999,40609,1353.6333333333334,1.4659716775640845,3,1,3,2,2,2,b'HB_4_frameB.png',1355.125825177564,40653.774755326915,40653,1355.1
61,1355.14411325,40654.3233975,40654,1355.1333333333334,1355.66091125,40669.8273375,40669,1355.6333333333334,1357.19515275,40715.854582500004,40715,1357.1666666666667,1.7346399296075106,1,0,6,1,2,2,b'NB_14_frameB_foil.png',1358.9297926796075,40767.89378038823,40767,1358.9
62,1358.9397729999998,40768.19319,40768,1358.9333333333334,1359.47325325,40784.1975975,40784,1359.4666666666667,1361.0074365,40830.223095,40830,1361.0,1.798572222236544,1,1,3,2,2,2,b'NB_4_frameA.png',1362.8060087222366,40884.1802616671,40884,1362.8
63,1362.8197492499999,40884.592477499995,40884,1362.8,1363.3198545,40899.595635,40899,1363.3,1364.854261,40945.62783,40945,1364.8333333333333,2.0917132454924285,1,1,3,2,2,2,b'NB_5_frameB.png',1366.9459742454924,41008.37922736477,41008,1366.9333333333334
64,1366.958981,41008.76943,41008,1366.9333333333334,1367.4091015,41022.273044999994,41022,1367.4,1368.9432669999999,41068.29801,41068,1368.9333333333334,1.4587088115513325,2,1,3,2,2,2,b'SB_4_frameB.png',1370.4019758115512,41112.05927434654,41112,1370.4
65,1370.41708875,41112.5126625,41112,1370.4,1370.86721475,41126.0164425,41126,1370.8666666666666,1372.40159475,41172.0478425,41172,1372.4,1.7915298584848642,3,0,6,1,2,2,b'HB_7_frameB_foil.png',1374.1931246084848,41225.79373825454,41225,1374.1666666666667
66,1374.20988575,41226.2965725,41226,1374.2,1374.74337225,41242.3011675,41242,1374.7333333333333,1376.277735,41288.33205,41288,1376.2666666666667,1.1986681707203388,3,0,6,1,2,2,b'HB_6_frameB_foil.png',1377.4764031707202,41324.29209512161,41324,1377.4666666666667
67,1377.48215725,41324.4647175,41324,1377.4666666666667,1377.9489952499998,41338.46985749999,41338,1377.9333333333334,1379.48320575,41384.4961725,41384,1379.4666666666667,1.2228194111958146,2,1,3,2,2,2,b'SB_1_frameB.png',1380.7060251611958,41421.18075483588,41421,1380.7
68,1380.7169697499999,41421.5090925,41421,1380.7,1381.233702,41437.01106,41437,1381.2333333333333,1382.7679302499998,41483.037907499995,41483,1382.7666666666667,2.031774860806763,1,1,3,2,2,2,b'NB_26_frameA.png',1384.7997051108066,41543.9911533242,41543,1384.7666666666667
69,1384.8049449999999,41544.148349999996,41544,1384.8,1385.3217665,41559.652995,41559,1385.3,1386.85602425,41605.6807275,41605,1386.8333333333333,1.7943661138415337,1,0,6,1,2,2,b'NB_27_frameA_foil.png',1388.6503903638416,41659.51171091525,41659,1388.6333333333334
70,1388.6563775,41659.691325,41659,1388.6333333333334,1389.1398582499999,41674.195747499994,41674,1389.1333333333334,1390.67403775,41720.2211325,41720,1390.6666666666667,1.9022932588122785,1,1,3,2,2,2,b'NB_9_frameB.png',1392.5763310088123,41777.28993026437,41777,1392.5666666666666
71,1392.58328175,41777.498452499996,41777,1392.5666666666666,1393.100086,41793.00258,41793,1393.1,1394.6342882499998,41839.028647499996,41839,1394.6333333333334,1.6203873683698475,3,0,6,1,2,2,b'HB_1_frameA_foil.png',1396.2546756183697,41887.64026855109,41887,1396.2333333333333
72,1396.2666785,41888.000355,41888,1396.2666666666667,1396.766827,41903.00481,41903,1396.7666666666667,1398.3010875,41949.032625,41949,1398.3,1.6806826782412827,3,0,6,1,2,2,b'HB_9_frameB_foil.png',1399.9817701782413,41999.45310534724,41999,1399.9666666666667
73,1399.984762,41999.54286,41999,1399.9666666666667,1400.51823175,42015.5469525,42015,1400.5,1402.0525592499998,42061.5767775,42061,1402.0333333333333,1.661264618858695,3,0,6,1,2,2,b'HB_1_frameA_foil.png',1403.7138238688585,42111.41471606576,42111,1403.7
74,1403.7193507499999,42111.58052249999,42111,1403.7,1404.269524,42128.08572,42128,1404.2666666666667,1405.8036949999998,42174.11085,42174,1405.8,1.9571402464061975,1,0,7,1,2,3,b'NB_28_frameB_foil.png',1407.760835246406,42232.82505739218,42232,1407.7333333333333
75,1407.7768724999999,42233.306175,42233,1407.7666666666667,1408.2603474999999,42247.810424999996,42247,1408.2333333333333,1409.79447725,42293.8343175,42293,1409.7666666666667,1.850305506028235,1,1,2,2,2,3,b'NB_20_frameA.png',1411.6447827560282,42349.343482680844,42349,1411.6333333333334
76,1411.64921325,42349.4763975,42349,1411.6333333333334,1412.09932125,42362.9796375,42362,1412.0666666666666,1413.63351075,42409.0053225,42409,1413.6333333333334,1.456603323109448,2,1,3,2,2,2,b'SB_6_frameB.png',1415.0901140731094,42452.703422193284,42452,1415.0666666666666
77,1415.09619325,42452.8857975,42452,1415.0666666666666,1415.629673,42468.89019,42468,1415.6,1417.1638484999999,42514.915454999995,42514,1417.1333333333334,1.291962691117078,2,1,3,2,2,2,b'SB_7_frameB.png',1418.455811191117,42553.67433573351,42553,1418.4333333333334
78,1418.47377825,42554.213347499994,42554,1418.4666666666667,1418.95726425,42568.7179275,42568,1418.9333333333334,1420.49149775,42614.7449325,42614,1420.4666666666667,1.2740157865919173,3,0,6,1,2,2,b'HB_5_frameA_foil.png',1421.765513536592,42652.965406097755,42652,1421.7333333333333
79,1421.77144275,42653.1432825,42653,1421.7666666666667,1422.2716355,42668.149065,42668,1422.2666666666667,1423.80580575,42714.1741725,42714,1423.8,1.8526357398368418,3,0,6,1,2,2,b'HB_2_frameB_foil.png',1425.6584414898368,42769.75324469511,42769,1425.6333333333334
80,1425.6668559999998,42770.005679999995,42770,1425.6666666666667,1426.2002949999999,42786.00885,42786,1426.2,1427.73463025,42832.0389075,42832,1427.7333333333333,1.4692469076253474,3,0,6,1,2,2,b'HB_1_frameA_foil.png',1429.2038771576254,42876.11631472876,42876,1429.2
81,1429.2152677499998,42876.4580325,42876,1429.2,1429.7654135,42892.962405,42892,1429.7333333333333,1431.2997337499999,42938.9920125,42938,1431.2666666666667,1.9593108682893217,1,1,2,2,2,3,b'NB_29_frameB.png',1433.2590446182892,42997.77133854868,42997,1433.2333333333333
82,1433.274637,42998.23911,42998,1433.2666666666667,1433.72467575,43011.7402725,43011,1433.7,1435.2589619999999,43057.76886,43057,1435.2333333333333,1.8442053613252938,1,1,2,2,2,3,b'NB_3_frameB.png',1437.1031673613252,43113.095020839755,43113,1437.1
83,1437.117663,43113.52989,43113,1437.1,1437.601095,43128.03285,43128,1437.6,1439.13531875,43174.0595625,43174,1439.1333333333334,1.8007692149840295,1,0,7,1,2,3,b'NB_30_frameB_foil.png',1440.936087964984,43228.08263894952,43228,1440.9333333333334
84,1440.949273,43228.47819,43228,1440.9333333333334,1441.399402,43241.98206,43241,1441.3666666666666,1442.9336345,43288.009034999995,43288,1442.9333333333334,1.577997051179409,3,0,6,1,2,2,b'HB_9_frameA_foil.png',1444.5116315511793,43335.34894653538,43335,1444.5
85,1444.52496825,43335.7490475,43335,1444.5,1445.0251107499998,43350.75332249999,43350,1445.0,1446.55947625,43396.7842875,43396,1446.5333333333333,1.189279768615961,2,0,6,1,2,2,b'SB_2_frameA_foil.png',1447.748756018616,43432.46268055848,43432,1447.7333333333333
86,1447.7517074999998,43432.551224999996,43432,1447.7333333333333,1448.28527725,43448.5583175,43448,1448.2666666666667,1449.819407,43494.58221,43494,1449.8,1.1988811367191374,2,1,3,2,2,2,b'SB_5_frameB.png',1451.018288136719,43530.548644101575,43530,1451.0
87,1451.0312875,43530.938624999995,43530,1451.0,1451.481386,43544.44158,43544,1451.4666666666667,1453.01560525,43590.4681575,43590,1453.0,1.4272425486706197,2,1,3,2,2,2,b'SB_4_frameB.png',1454.4428477986705,43633.28543396012,43633,1454.4333333333334
88,1454.45624525,43633.6873575,43633,1454.4333333333334,1454.9397105,43648.191315000004,43648,1454.9333333333334,1456.4740514999999,43694.22154499999,43694,1456.4666666666667,1.8174936161376536,1,0,7,1,2,3,b'NB_4_frameB_foil.png',1458.2915451161375,43748.74635348412,43748,1458.2666666666667
89,1458.30659425,43749.1978275,43749,1458.3,1458.77340125,43763.2020375,43763,1458.7666666666667,1460.3075565,43809.226695,43809,1460.3,1.9902699678204954,1,1,2,2,2,3,b'NB_30_frameA.png',1462.2978264678204,43868.93479403461,43868,1462.2666666666667
90,1462.3062055,43869.186165,43869,1462.3,1462.8396705,43885.190115,43885,1462.8333333333333,1464.37402675,43931.2208025,43931,1464.3666666666666,1.8755306941457093,1,0,7,1,2,3,b'NB_7_frameA_foil.png',1466.2495574441457,43987.48672332437,43987,1466.2333333333333
91,1466.259533,43987.78599,43987,1466.2333333333333,1466.7596819999999,44002.79046,44002,1466.7333333333333,1468.293856,44048.81568,44048,1468.2666666666667,1.3541128281503916,2,0,7,1,2,3,b'SB_2_frameB_foil.png',1469.6479688281504,44089.43906484451,44089,1469.6333333333334
92,1469.661098,44089.83294,44089,1469.6333333333334,1470.111185,44103.335549999996,44103,1470.1,1471.6453975,44149.361925,44149,1471.6333333333334,1.3463089405559003,2,1,2,2,2,3,b'SB_3_frameB.png',1472.9917064405558,44189.751193216674,44189,1472.9666666666667
93,1473.005072,44190.15216,44190,1473.0,1473.5385394999998,44206.15618499999,44206,1473.5333333333333,1475.07274975,44252.1824925,44252,1475.0666666666666,1.1241654707118869,2,1,2,2,2,3,b'SB_8_frameA.png',1476.1969152207118,44285.90745662135,44285,1476.1666666666667
94,1476.2142715,44286.428145,44286,1476.2,1476.714356,44301.43068,44301,1476.7,1478.2486227499999,44347.45868249999,44347,1478.2333333333333,1.4633489595726132,2,1,2,2,2,3,b'SB_8_frameB.png',1479.7119717095725,44391.35915128717,44391,1479.7
95,1479.7263965,44391.791895,44391,1479.7,1480.1765655,44405.296965,44405,1480.1666666666667,1481.71086375,44451.325912500004,44451,1481.7,1.2953801625408232,2,1,2,2,2,3,b'SB_1_frameB.png',1483.0062439125409,44490.18731737623,44490,1483.0
96,1483.02047825,44490.6143475,44490,1483.0,1483.470583,44504.117490000004,44504,1483.4666666666667,1485.00476175,44550.1428525,44550,1485.0,1.880812087096274,1,1,2,2,2,3,b'NB_27_frameB.png',1486.8855738370962,44606.56721511289,44606,1486.8666666666666
97,1486.89869525,44606.9608575,44606,1486.8666666666666,1487.41548475,44622.4645425,44622,1487.4,1488.94979,44668.4937,44668,1488.9333333333334,1.4117907187901437,3,1,3,2,2,2,b'HB_8_frameB.png',1490.36158071879,44710.8474215637,44710,1490.3333333333333
98,1490.376188,44711.28564,44711,1490.3666666666666,1490.893005,44726.79015,44726,1490.8666666666666,1492.42717425,44772.8152275,44772,1492.4,1.516103143338114,3,0,6,1,2,2,b'HB_6_frameB_foil.png',1493.9432773933381,44818.29832180015,44818,1493.9333333333334
99,1493.9526865,44818.580595,44818,1493.9333333333334,1494.4694877499999,44834.084632499995,44834,1494.4666666666667,1496.0037,44880.111,44880,1496.0,1.9189129592850804,1,1,2,2,2,3,b'NB_24_frameA.png',1497.922612959285,44937.67838877855,44937,1497.9
100,1497.93654075,44938.0962225,44938,1497.9333333333334,1498.41999625,44952.5998875,44952,1498.4,1499.9543915,44998.631745,44998,1499.9333333333334,1.3647201037965715,2,1,2,2,2,3,b'SB_1_frameB.png',1501.3191116037965,45039.573348113896,45039,1501.3
101,1501.3247112499998,45039.741337499996,45039,1501.3,1501.824878,45054.74634,45054,1501.8,1503.35901825,45100.7705475,45100,1503.3333333333333,1.4821123564615846,2,1,7,1,1,3,b'SB_6_frameA.png',1504.8411306064615,45145.233918193844,45145,1504.8333333333333
102,1504.8483919999999,45145.451759999996,45145,1504.8333333333333,1505.38187325,45161.456197499996,45161,1505.3666666666666,1506.91607925,45207.4823775,45207,1506.9,1.8157676621340215,1,0,7,1,2,3,b'NB_12_frameB_foil.png',1508.731846912134,45261.95540736402,45261,1508.7
103,1508.7414959999999,45262.24488,45262,1508.7333333333333,1509.20824325,45276.2472975,45276,1509.2,1510.7424489999999,45322.27346999999,45322,1510.7333333333333,1.1645206771790981,2,1,7,1,1,3,b'SB_9_frameB.png',1511.906969677179,45357.209090315366,45357,1511.9
104,1511.9178295,45357.534885,45357,1511.9,1512.4346375,45373.039125,45373,1512.4333333333334,1513.96883875,45419.0651625,45419,1513.9666666666667,1.2742006033658981,3,1,3,2,2,2,b'HB_2_frameA.png',1515.243039353366,45457.29118060098,45457,1515.2333333333333
105,1515.2568165,45457.704495,45457,1515.2333333333333,1515.7069645,45471.208934999995,45471,1515.7,1517.2411375,45517.234124999995,45517,1517.2333333333333,1.8637731224298477,1,1,2,2,2,3,b'NB_19_frameB.png',1519.1049106224298,45573.14731867289,45573,1519.1
106,1519.1172864999999,45573.518594999994,45573,1519.1,1519.6674839999998,45590.02451999999,45590,1519.6666666666667,1521.20182,45636.0546,45636,1521.2,1.366305242292583,2,0,7,1,2,3,b'SB_2_frameB_foil.png',1522.5681252422926,45677.04375726878,45677,1522.5666666666666
107,1522.58105475,45677.4316425,45677,1522.5666666666666,1523.1312455,45693.937365,45693,1523.1,1524.6653992499998,45739.961977499996,45739,1524.6333333333334,1.1435552164912224,2,1,7,1,1,3,b'SB_2_frameA.png',1525.808954466491,45774.26863399473,45774,1525.8
108,1525.82673,45774.8019,45774,1525.8,1526.343572,45790.30716,45790,1526.3333333333333,1527.87775825,45836.3327475,45836,1527.8666666666666,1.4582141996361315,3,1,3,2,2,2,b'HB_3_frameA.png',1529.335972449636,45880.07917348908,45880,1529.3333333333333
109,1529.3409319999998,45880.22796,45880,1529.3333333333333,1529.8577424999999,45895.732274999995,45895,1529.8333333333333,1531.3919174999999,45941.75752499999,45941,1531.3666666666666,1.0683360444381833,2,0,7,1,2,3,b'SB_1_frameA_foil.png',1532.460253544438,45973.80760633314,45973,1532.4333333333334
110,1532.46991575,45974.0974725,45974,1532.4666666666667,1532.9200422499998,45987.601267499995,45987,1532.9,1534.454256,46033.62768,46033,1534.4333333333334,1.4754656367003918,2,0,2,2,1,3,b'SB_2_frameB_foil.png',1535.9297216367004,46077.89164910101,46077,1535.9
111,1535.93882725,46078.1648175,46078,1535.9333333333334,1536.40560425,46092.168127499994,46092,1536.4,1537.9399435,46138.198305,46138,1537.9333333333334,1.9950778256170452,1,0,7,1,2,3,b'NB_16_frameB_foil.png',1539.935021325617,46198.05063976851,46198,1539.9333333333334
112,1539.95192925,46198.557877499996,46198,1539.9333333333334,1540.4854185,46214.562555,46214,1540.4666666666667,1542.0197122499999,46260.5913675,46260,1542.0,1.3217019271105528,2,0,7,1,2,3,b'SB_7_frameA_foil.png',1543.3414141771104,46300.242425313314,46300,1543.3333333333333
113,1543.3493425,46300.480274999994,46300,1543.3333333333333,1543.8494859999998,46315.48458,46315,1543.8333333333333,1545.38365,46361.5095,46361,1545.3666666666666,1.378078536130488,3,1,3,2,2,2,b'HB_9_frameB.png',1546.7617285361305,46402.851856083915,46402,1546.7333333333333
114,1546.7712769999998,46403.138309999995,46403,1546.7666666666667,1547.23807775,46417.1423325,46417,1547.2333333333333,1548.7722852499999,46463.168557499994,46463,1548.7666666666667,2.0321953906677663,1,1,7,1,1,3,b'NB_22_frameA.png',1550.8044806406676,46524.13441922003,46524,1550.8
115,1550.8102617499999,46524.307852499995,46524,1550.8,1551.34373325,46540.3119975,46540,1551.3333333333333,1552.87791025,46586.3373075,46586,1552.8666666666666,1.4750320659950376,3,1,6,1,1,2,b'HB_7_frameA.png',1554.352942315995,46630.58826947985,46630,1554.3333333333333
116,1554.361079,46630.832370000004,46630,1554.3333333333333,1554.8945637499999,46646.836912499995,46646,1554.8666666666666,1556.4287775,46692.863325,46692,1556.4,1.3666307646781206,2,1,7,1,1,3,b'SB_9_frameA.png',1557.7954082646781,46733.86224794034,46733,1557.7666666666667
117,1557.7981814999998,46733.945445,46733,1557.7666666666667,1558.3316802499999,46749.95040749999,46749,1558.3,1559.86601225,46795.9803675,46795,1559.8333333333333,1.5871795448474586,3,0,7,1,2,3,b'HB_4_frameB_foil.png',1561.4531917948475,46843.595753845424,46843,1561.4333333333334
118,1561.4623367499998,46843.8701025,46843,1561.4333333333334,1561.92910425,46857.873127499995,46857,1561.9,1563.4633215,46903.899645,46903,1563.4333333333334,1.5359844621270895,3,1,7,1,1,3,b'HB_4_frameB.png',1564.999305962127,46949.97917886381,46949,1564.9666666666667
119,1565.0155585,46950.466755,46950,1565.0,1565.53233475,46965.9700425,46965,1565.5,1567.06654975,47011.996492499995,47011,1567.0333333333333,1.1846300256438553,2,0,2,2,1,3,b'SB_4_frameB_foil.png',1568.2511797756438,47047.53539326931,47047,1568.2333333333333
120,1568.26527075,47047.9581225,47047,1568.2333333333333,1568.7821207499999,47063.4636225,47063,1568.7666666666667,1570.31629,47109.4887,47109,1570.3,1.6989781064912677,3,1,7,1,1,3,b'HB_1_frameB.png',1572.0152681064912,47160.45804319474,47160,1572.0
121,1572.02477375,47160.7432125,47160,1572.0,1572.4915732499999,47174.74719749999,47174,1572.4666666666667,1574.02587875,47220.7763625,47220,1574.0,1.3568572052754462,2,0,7,1,2,3,b'SB_7_frameB_foil.png',1575.3827359552754,47261.482078658264,47261,1575.3666666666666
122,1575.3879614999998,47261.638844999994,47261,1575.3666666666666,1576.00481475,47280.1444425,47280,1576.0,1577.53894425,47326.168327499996,47326,1577.5333333333333,1.9196715150028467,1,1,2,2,2,3,b'NB_11_frameB.png',1579.4586157650028,47383.75847295008,47383,1579.4333333333334
123,1579.4715165,47384.145495,47384,1579.4666666666667,1580.004998,47400.149939999996,47400,1580.0,1581.53921625,47446.1764875,47446,1581.5333333333333,1.5446241898462176,3,1,7,1,1,3,b'HB_6_frameB.png',1583.0838404398462,47492.51521319539,47492,1583.0666666666666
124,1583.1005,47493.015,47493,1583.1,1583.58397275,47507.5191825,47507,1583.5666666666666,1585.1181824999999,47553.545475,47553,1585.1,1.026444673538208,3,1,7,1,1,3,b'HB_2_frameB.png',1586.144627173538,47584.338815206145,47584,1586.1333333333334
125,1586.157015,47584.71045,47584,1586.1333333333334,1586.69057075,47600.7171225,47600,1586.6666666666667,1588.2247065,47646.741194999995,47646,1588.2,1.9482542220503092,1,1,7,1,1,3,b'NB_18_frameA.png',1590.1729607220502,47705.188821661504,47705,1590.1666666666667
126,1590.1763557499999,47705.29067249999,47705,1590.1666666666667,1590.64314975,47719.2944925,47719,1590.6333333333334,1592.1773362499998,47765.3200875,47765,1592.1666666666667,1.4349835235625505,3,0,2,2,1,3,b'HB_3_frameB_foil.png',1593.6123197735624,47808.36959320687,47808,1593.6
127,1593.628244,47808.84732,47808,1593.6,1594.1116745,47823.350235,47823,1594.1,1595.64586925,47869.3760775,47869,1595.6333333333334,1.2120838770642877,2,0,2,2,1,3,b'SB_3_frameB_foil.png',1596.8579531270643,47905.738593811926,47905,1596.8333333333333
128,1596.873588,47906.20764,47906,1596.8666666666666,1597.3737327499998,47921.2119825,47921,1597.3666666666666,1598.9078865,47967.236594999995,47967,1598.9,1.729379303753376,3,0,7,1,2,3,b'HB_8_frameA_foil.png',1600.6372658037533,48019.117974112596,48019,1600.6333333333334
129,1600.6406682499999,48019.2200475,48019,1600.6333333333334,1601.157451,48034.72353,48034,1601.1333333333334,1602.6916919999999,48080.750759999995,48080,1602.6666666666667,1.3733073147013783,2,1,7,1,1,3,b'SB_3_frameA.png',1604.0649993147013,48121.94997944104,48121,1604.0333333333333
130,1604.0763232499999,48122.2896975,48122,1604.0666666666666,1604.5765132499998,48137.2953975,48137,1604.5666666666666,1606.1106885,48183.320654999996,48183,1606.1,1.7169273449108005,3,1,7,1,1,3,b'HB_7_frameB.png',1607.8276158449107,48234.82847534732,48234,1607.8
131,1607.84040525,48235.2121575,48235,1607.8333333333333,1608.3071949999999,48249.21584999999,48249,1608.3,1609.8413847499999,48295.24154249999,48295,1609.8333333333333,1.2025562608614564,2,0,7,1,2,3,b'SB_6_frameA_foil.png',1611.0439410108613,48331.318230325836,48331,1611.0333333333333
132,1611.0576542499998,48331.7296275,48331,1611.0333333333333,1611.574459,48347.23377,48347,1611.5666666666666,1613.1086369999998,48393.25910999999,48393,1613.1,1.8878122721798718,3,0,7,1,2,3,b'HB_1_frameB_foil.png',1614.9964492721797,48449.89347816539,48449,1614.9666666666667
133,1615.00777525,48450.2332575,48450,1615.0,1615.5412165,48466.236495,48466,1615.5333333333333,1617.07536775,48512.2610325,48512,1617.0666666666666,1.837872939184308,1,0,7,1,2,3,b'NB_1_frameA_foil.png',1618.9132406891842,48567.39722067553,48567,1618.9
134,1618.91638175,48567.4914525,48567,1618.9,1619.39982175,48581.9946525,48581,1619.3666666666666,1620.9339814999998,48628.019445,48628,1620.9333333333334,1.3893628041259944,3,1,2,2,2,3,b'HB_3_frameB.png',1622.3233443041258,48669.70032912378,48669,1622.3
135,1622.3301115,48669.903345,48669,1622.3,1622.7802665,48683.407995,48683,1622.7666666666667,1624.3144404999998,48729.433215,48729,1624.3,1.7699507186189294,3,0,7,1,2,3,b'HB_7_frameA_foil.png',1626.0843912186187,48782.531736558565,48782,1626.0666666666666
136,1626.0915344999999,48782.746035,48782,1626.0666666666666,1626.59165625,48797.7496875,48797,1626.5666666666666,1628.1258632499998,48843.775897499996,48843,1628.1,1.870119889266789,1,0,7,1,2,3,b'NB_5_frameA_foil.png',1629.9959831392666,48899.879494178,48899,1629.9666666666667
137,1629.99929875,48899.9789625,48899,1629.9666666666667,1630.449416,48913.48248,48913,1630.4333333333334,1631.983552,48959.506559999994,48959,1631.9666666666667,1.359506662003696,2,0,2,2,1,3,b'SB_1_frameB_foil.png',1633.3430586620036,49000.291759860105,49000,1633.3333333333333
138,1633.35975975,49000.7927925,49000,1633.3333333333333,1633.84321675,49015.2965025,49015,1633.8333333333333,1635.37743375,49061.3230125,49061,1635.3666666666666,1.5561877223663032,3,1,7,1,1,3,b'HB_6_frameA.png',1636.9336214723662,49108.00864417099,49108,1636.9333333333334
139,1636.9499222499999,49108.49766749999,49108,1636.9333333333334,1637.40002225,49122.0006675,49122,1637.4,1638.9343199999998,49168.029599999994,49168,1638.9333333333334,1.6569643043912947,2,1,7,1,1,3,b'SB_5_frameA.png',1640.5912843043911,49217.73852913173,49217,1640.5666666666666
140,1640.6065649999998,49218.19695,49218,1640.6,1641.07336075,49232.200822499995,49232,1641.0666666666666,1642.6076417499999,49278.229252499994,49278,1642.6,1.87833022326231,1,0,7,1,2,3,b'NB_17_frameA_foil.png',1644.4859719732622,49334.57915919786,49334,1644.4666666666667
141,1644.49930275,49334.9790825,49334,1644.4666666666667,1644.9661039999999,49348.98312,49348,1644.9333333333334,1646.500403,49395.012090000004,49395,1646.5,1.9805582934059203,1,1,7,1,1,3,b'NB_7_frameB.png',1648.480961293406,49454.42883880218,49454,1648.4666666666667
142,1648.49652625,49454.8957875,49454,1648.4666666666667,1648.9799684999998,49469.399054999994,49469,1648.9666666666667,1650.5141542499998,49515.4246275,49515,1650.5,1.4174481816589832,2,1,7,1,1,3,b'SB_1_frameA.png',1651.9316024316588,49557.948072949766,49557,1651.9
143,1651.9495857499999,49558.487572499995,49558,1651.9333333333334,1652.39970825,49571.9912475,49571,1652.3666666666666,1653.93394275,49618.018282499994,49618,1653.9333333333334,1.8957777344621718,1,1,2,2,2,3,b'NB_12_frameA.png',1655.829720484462,49674.89161453386,49674,1655.8
144,1655.84183925,49675.2551775,49675,1655.8333333333333,1656.3086395,49689.259185,49689,1656.3,1657.8428425,49735.285275,49735,1657.8333333333333,1.2525642891414464,2,1,2,2,2,3,b'SB_4_frameA.png',1659.0954067891414,49772.862203674245,49772,1659.0666666666666
145,1659.102347,49773.07041,49773,1659.1,1659.6358027499998,49789.074082499996,49789,1659.6333333333334,1661.1700704999998,49835.102114999994,49835,1661.1666666666667,2.0489059179089963,1,0,2,2,1,3,b'NB_25_frameA_foil.png',1663.2189764179088,49896.569292537264,49896,1663.2
146,1663.2314227499999,49896.9426825,49896,1663.2,1663.73156225,49911.9468675,49911,1663.7,1665.26571,49957.9713,49957,1665.2333333333333,1.8107229387387633,1,0,7,1,2,3,b'NB_23_frameA_foil.png',1667.0764329387387,50012.29298816216,50012,1667.0666666666666
147,1667.0792549999999,50012.377649999995,50012,1667.0666666666666,1667.5460424999999,50026.381275,50026,1667.5333333333333,1669.08025325,50072.4075975,50072,1669.0666666666666,1.282213204074651,2,0,7,1,2,3,b'SB_1_frameB_foil.png',1670.3624664540746,50110.87399362224,50110,1670.3333333333333
148,1670.365574,50110.96722,50110,1670.3333333333333,1670.8990724999999,50126.972174999995,50126,1670.8666666666666,1672.43322025,50172.9966075,50172,1672.4,1.6542557142674923,3,1,7,1,1,3,b'HB_1_frameA.png',1674.0874759642675,50222.62427892802,50222,1674.0666666666666
149,1674.098565,50222.95695,50222,1674.0666666666666,1674.581974,50237.45922,50237,1674.5666666666666,1676.116205,50283.486150000004,50283,1676.1,1.9562199055217206,1,0,2,2,1,3,b'NB_20_frameB_foil.png',1678.0724249055218,50342.172747165656,50342,1678.0666666666666
150,1678.0780937499999,50342.3428125,50342,1678.0666666666666,1678.56153675,50356.8461025,50356,1678.5333333333333,1680.095758,50402.87274,50402,1680.0666666666666,1.8519976483657956,1,1,7,1,1,3,b'NB_1_frameB.png',1681.9477556483657,50458.43266945097,50458,1681.9333333333334
151,1681.9535482499998,50458.606447499995,50458,1681.9333333333334,1682.4703124999999,50474.10937499999,50474,1682.4666666666667,1684.004632,50520.13896,50520,1684.0,1.5829057986848056,3,1,7,1,1,3,b'HB_9_frameA.png',1685.5875377986847,50567.62613396054,50567,1685.5666666666666
152,1685.600117,50568.003509999995,50568,1685.6,1686.06692075,50582.0076225,50582,1686.0666666666666,1687.6011045,50628.033135,50628,1687.6,1.60399529337883,3,1,7,1,1,3,b'HB_8_frameB.png',1689.2050997933788,50676.15299380136,50676,1689.2
153,1689.2171672499999,50676.515017499994,50676,1689.2,1689.7339622499999,50692.018867499995,50692,1689.7333333333333,1691.2683295,50738.049885,50738,1691.2666666666667,1.1197480750270188,2,0,7,1,2,3,b'SB_4_frameA_foil.png',1692.388077575027,50771.64232725081,50771,1692.3666666666666
154,1692.40073775,50772.0221325,50772,1692.4,1692.8675294999998,50786.025884999995,50786,1692.8666666666666,1694.4017717499999,50832.0531525,50832,1694.4,1.3258553496561944,2,1,2,2,2,3,b'SB_2_frameA.png',1695.727627099656,50871.82881298968,50871,1695.7
155,1695.73289075,50871.9867225,50871,1695.7,1696.216348,50886.490439999994,50886,1696.2,1697.7505354999998,50932.516064999996,50932,1697.7333333333333,1.9259039098396897,1,0,7,1,2,3,b'NB_29_frameA_foil.png',1699.6764394098395,50990.29318229519,50990,1699.6666666666667
156,1699.678919,50990.36757,50990,1699.6666666666667,1700.129013,51003.87039,51003,1700.1,1701.663202,51049.89606,51049,1701.6333333333334,1.5664838650263846,3,1,2,2,2,3,b'HB_3_frameA.png',1703.2296858650263,51096.89057595079,51096,1703.2
157,1703.2473639999998,51097.42092,51097,1703.2333333333333,1703.69747375,51110.9242125,51110,1703.6666666666667,1705.231663,51156.94989,51156,1705.2,1.936293532140553,1,0,7,1,2,3,b'NB_6_frameB_foil.png',1707.1679565321406,51215.03869596422,51215,1707.1666666666667
158,1707.1714789999999,51215.144369999995,51215,1707.1666666666667,1707.6716872499999,51230.150617499996,51230,1707.6666666666667,1709.2058445,51276.175335,51276,1709.2,1.6871663704514503,1,1,7,1,1,3,b'NB_21_frameB.png',1710.8930108704515,51326.79032611354,51326,1710.8666666666666
159,1710.8995244999999,51326.985734999995,51326,1710.8666666666666,1711.4329862499999,51342.98958749999,51342,1711.4,1712.96718575,51389.0155725,51389,1712.9666666666667,1.9001444224268198,1,0,2,2,1,3,b'NB_18_frameB_foil.png',1714.8673301724268,51446.019905172805,51446,1714.8666666666666
160,1714.877689,51446.330669999996,51446,1714.8666666666666,1715.3444745,51460.334234999995,51460,1715.3333333333333,1716.8787679999998,51506.36304,51506,1716.8666666666666,1.8468333687633276,1,1,7,1,1,3,b'NB_28_frameA.png',1718.7256013687631,51561.7680410629,51561,1718.7
161,1718.7381014999999,51562.143045,51562,1718.7333333333333,1719.27157225,51578.1471675,51578,1719.2666666666667,1720.8057932499999,51624.17379749999,51624,1720.8,1.4445747989229858,3,1,2,2,2,3,b'HB_2_frameA.png',1722.2503680489228,51667.51104146768,51667,1722.2333333333333
162,1722.267367,51668.02101,51668,1722.2666666666667,1722.7507907499999,51682.523722499995,51682,1722.7333333333333,1724.285007,51728.55021,51728,1724.2666666666667,2.139268367551267,1,1,2,2,2,3,b'NB_6_frameA.png',1726.4242753675512,51792.72826102654,51792,1726.4
163,1726.4274954999998,51792.824864999995,51792,1726.4,1726.9109374999998,51807.32812499999,51807,1726.9,1728.4451697499999,51853.355092499994,51853,1728.4333333333334,1.4460328170098364,2,1,7,1,1,3,b'SB_3_frameA.png',1729.8912025670097,51896.73607701029,51896,1729.8666666666666
164,1729.89404075,51896.821222499995,51896,1729.8666666666666,1730.4942525,51914.827574999996,51914,1730.4666666666667,1732.028453,51960.85359,51960,1732.0,1.0902679446153343,3,0,7,1,2,3,b'HB_4_frameA_foil.png',1733.1187209446152,51993.56162833846,51993,1733.1
165,1733.1278375,51993.835125,51993,1733.1,1733.66129075,52009.838722500004,52009,1733.6333333333334,1735.1954915,52055.864745,52055,1735.1666666666667,2.037996710278094,1,1,2,2,2,3,b'NB_14_frameA.png',1737.233488210278,52117.00464630834,52117,1737.2333333333333
166,1737.2443125,52117.329375,52117,1737.2333333333333,1737.77775725,52133.3327175,52133,1737.7666666666667,1739.31202225,52179.3606675,52179,1739.3,1.298456700053066,3,0,7,1,2,3,b'HB_5_frameB_foil.png',1740.610478950053,52218.31436850159,52218,1740.6
167,1740.61588825,52218.4766475,52218,1740.6,1741.06598625,52231.9795875,52231,1741.0333333333333,1742.60013175,52278.003952499996,52278,1742.6,1.4585890122689307,2,0,7,1,2,3,b'SB_6_frameB_foil.png',1744.0587207622689,52321.76162286806,52321,1744.0333333333333
168,1744.065603,52321.96809,52321,1744.0333333333333,1744.58248125,52337.4744375,52337,1744.5666666666666,1746.11667875,52383.500362499995,52383,1746.1,1.9048291207291186,1,0,7,1,2,3,b'NB_11_frameA_foil.png',1748.021507870729,52440.64523612187,52440,1748.0
169,1748.0294139999999,52440.882419999994,52440,1748.0,1748.496159,52454.884770000004,52454,1748.4666666666667,1750.030344,52500.91032,52500,1750.0,1.2423528493382037,3,0,7,1,2,3,b'HB_5_frameB_foil.png',1751.2726968493382,52538.18090548015,52538,1751.2666666666667
170,1751.2872659999998,52538.617979999995,52538,1751.2666666666667,1751.754044,52552.62132,52552,1751.7333333333333,1753.28822425,52598.6467275,52598,1753.2666666666667,1.2314662295393646,2,0,7,1,2,3,b'SB_5_frameB_foil.png',1754.5196904795393,52635.590714386184,52635,1754.5
171,1754.5364405,52636.093215,52636,1754.5333333333333,1755.0532719999999,52651.598159999994,52651,1755.0333333333333,1756.5874529999999,52697.623589999996,52697,1756.5666666666666,1.4374346686527133,3,0,7,1,2,3,b'HB_1_frameA_foil.png',1758.0248876686526,52740.74663005958,52740,1758.0
172,1758.0431815,52741.295444999996,52741,1758.0333333333333,1758.5266654999998,52755.79996499999,52755,1758.5,1760.06084225,52801.8252675,52801,1760.0333333333333,1.0745286070741713,3,0,2,2,1,3,b'HB_6_frameA_foil.png',1761.1353708570741,52834.06112571222,52834,1761.1333333333334
173,1761.14285625,52834.2856875,52834,1761.1333333333334,1761.64296,52849.288799999995,52849,1761.6333333333334,1763.1772784999998,52895.318354999996,52895,1763.1666666666667,1.358578802086413,2,0,7,1,2,3,b'SB_1_frameA_foil.png',1764.5358573020862,52936.07571906259,52936,1764.5333333333333
174,1764.5466017499998,52936.39805249999,52936,1764.5333333333333,1765.03010925,52950.903277499994,52950,1765.0,1766.5642839999998,52996.928519999994,52996,1766.5333333333333,1.3508239686489105,2,0,7,1,2,3,b'SB_9_frameB_foil.png',1767.9151079686487,53037.45323905946,53037,1767.9
175,1767.9309735,53037.929205,53037,1767.9,1768.39774625,53051.9323875,53051,1768.3666666666666,1769.9319732499998,53097.95919749999,53097,1769.9,1.5888341469690204,3,1,7,1,1,3,b'HB_2_frameA.png',1771.5208073969688,53145.62422190906,53145,1771.5
176,1771.53649825,53146.0949475,53146,1771.5333333333333,1772.019988,53160.59964,53160,1772.0,1773.5542085,53206.626254999996,53206,1773.5333333333333,1.8592759743332863,1,1,2,2,2,3,b'NB_17_frameB.png',1775.4134844743332,53262.404534229994,53262,1775.4
177,1775.43262575,53262.9787725,53262,1775.4,1775.9561155,53278.683464999995,53278,1775.9333333333334,1777.49386025,53324.815807499996,53324,1777.4666666666667,1.3191069806925952,2,1,6,1,1,2,b'SB_30_frameA.png',1778.8129672306925,53364.38901692077,53364,1778.8
178,1778.87417025,53366.225107499995,53366,1778.8666666666666,1779.4090644999999,53382.271935,53382,1779.4,1780.93087075,53427.9261225,53427,1780.9,1.2226054193452,2,0,7,1,2,3,b'SB_30_frameB_foil.png',1782.1534761693451,53464.60428508036,53464,1782.1333333333334
179,1782.1823439999998,53465.47031999999,53465,1782.1666666666667,1782.74525875,53482.357762499996,53482,1782.7333333333333,1784.2971785,53528.915355,53528,1784.2666666666667,1.7025837008841336,3,1,2,2,2,3,b'HB_30_frameB.png',1785.999762200884,53579.99286602652,53579,1785.9666666666667
180,1786.04120425,53581.2361275,53581,1786.0333333333333,1786.5603517499999,53596.8105525,53596,1786.5333333333333,1788.10567625,53643.1702875,53643,1788.1,1.2523242700845003,3,0,2,2,1,3,b'HB_30_frameA_foil.png',1789.3580005200845,53680.74001560253,53680,1789.3333333333333
