trial_num,fixcross_time,fixation_HZ,fixation_bin,fixation_regarded,start_time,Fstart_HZ,Fstart_bin,Fstart_regarded,stop_time,Fstop_HZ,Fstop_bin,Fstop_regarded,RT,boundary_type,stimuli_type,resp_value,old_new,accuracy,confidence,frameName,response_time,response_HZ,response_bin,response_regarded
1,1102.08161125,33062.4483375,33062,1102.0666666666666,1102.72375825,33081.7127475,33081,1102.7,1104.279135,33128.37405,33128,1104.2666666666667,1.5634266011184081,3,1,3,2,2,2,b'HB_1_frameA.png',1105.8425616011184,33175.27684803355,33175,1105.8333333333333
2,1105.8730745,33176.192235,33176,1105.8666666666666,1106.4148865,33192.446595,33192,1106.4,1107.962794,33238.88382,33238,1107.9333333333334,0.5482278123963624,1,0,6,1,2,2,b'NB_3_frameA_foil.png',1108.5110218123964,33255.33065437189,33255,1108.5
3,1108.5423417499999,33256.2702525,33256,1108.5333333333333,1109.104183,33273.12549,33273,1109.1,1110.65201475,33319.5604425,33319,1110.6333333333334,1.6992779518477619,2,1,3,2,2,2,b'SB_7_frameB.png',1112.3512927018478,33370.53878105543,33370,1112.3333333333333
4,1112.3779815,33371.339445,33371,1112.3666666666666,1112.94000975,33388.2002925,33388,1112.9333333333334,1114.4677095,33434.031285,33434,1114.4666666666667,1.264270587475039,2,1,4,2,2,1,b'SB_6_frameB.png',1115.731980087475,33471.95940262425,33471,1115.7
5,1115.758531,33472.75593,33472,1115.7333333333333,1116.32041475,33489.6124425,33489,1116.3,1117.89129475,33536.7388425,33536,1117.8666666666666,1.1307864895788953,2,1,3,2,2,2,b'SB_9_frameB.png',1119.022081239579,33570.66243718737,33570,1119.0
6,1119.054066,33571.621979999996,33571,1119.0333333333333,1119.63610025,33589.0830075,33589,1119.6333333333334,1121.16371575,33634.911472499996,33634,1121.1333333333334,1.400267792167142,1,1,3,2,2,2,b'NB_24_frameA.png',1122.563983542167,33676.91950626501,33676,1122.5333333333333
7,1122.5746717499999,33677.240152499995,33677,1122.5666666666666,1123.09644,33692.8932,33692,1123.0666666666666,1124.64446125,33739.3338375,33739,1124.6333333333334,1.039200845756568,3,1,4,2,2,1,b'HB_9_frameB.png',1125.6836620957565,33770.5098628727,33770,1125.6666666666667
8,1125.68917275,33770.675182499996,33770,1125.6666666666667,1126.2914269999999,33788.742809999996,33788,1126.2666666666667,1127.81877575,33834.5632725,33834,1127.8,-0.46054559806361794,1,1,3,2,2,2,b'NB_26_frameA.png',1127.3582301519364,33820.746904558095,33820,1127.3333333333333
9,1127.3654072499999,33820.9622175,33820,1127.3333333333333,1127.9072065,33837.216195,33837,1127.9,1129.4344695,33883.034085,33883,1129.4333333333334,1.6591410008259118,3,0,6,1,2,2,b'HB_2_frameA_foil.png',1131.093610500826,33932.80831502478,33932,1131.0666666666666
10,1131.1006089999998,33933.01826999999,33933,1131.1,1131.6223097499999,33948.669292499995,33948,1131.6,1133.1696722499998,33995.0901675,33995,1133.1666666666667,1.0937225975794718,3,1,3,2,2,2,b'HB_9_frameA.png',1134.2633948475793,34027.90184542738,34027,1134.2333333333333
11,1134.2763627499999,34028.2908825,34028,1134.2666666666667,1134.818203,34044.54609,34044,1134.8,1136.345547,34090.366409999995,34090,1136.3333333333333,1.3954040586249903,2,1,3,2,2,2,b'SB_6_frameA.png',1137.740951058625,34132.228531758745,34132,1137.7333333333333
12,1137.7497335,34132.492005,34132,1137.7333333333333,1138.33166225,34149.9498675,34149,1138.3,1139.87898525,34196.369557499995,34196,1139.8666666666666,1.5677168027032167,3,0,6,1,2,2,b'HB_9_frameA_foil.png',1141.4467020527031,34243.40106158109,34243,1141.4333333333334
13,1141.45162325,34243.5486975,34243,1141.4333333333334,1142.01373225,34260.4119675,34260,1142.0,1143.54083775,34306.2251325,34306,1143.5333333333333,2.4498344442108646,3,0,6,1,2,2,b'HB_7_frameA_foil.png',1145.990672194211,34379.72016582633,34379,1145.9666666666667
14,1146.01550825,34380.465247500004,34380,1146.0,1146.5372745,34396.118235,34396,1146.5333333333333,1148.08521625,34442.5564875,34442,1148.0666666666666,0.6213035407708958,1,1,3,2,2,2,b'NB_22_frameA.png',1148.706519790771,34461.195593723125,34461,1148.7
15,1148.72706475,34461.8119425,34461,1148.7,1149.228912,34476.867360000004,34476,1149.2,1150.75616025,34522.6848075,34522,1150.7333333333333,0.8734006150625646,2,1,3,2,2,2,b'SB_3_frameA.png',1151.6295608650626,34548.88682595188,34548,1151.6
16,1151.641019,34549.23057,34549,1151.6333333333334,1152.1828295,34565.484885,34565,1152.1666666666667,1153.73016175,34611.904852499996,34611,1153.7,1.0840462702326477,1,0,6,1,2,2,b'NB_1_frameA_foil.png',1154.8142080202326,34644.426240606976,34644,1154.8
17,1154.8333665,34645.000995,34645,1154.8333333333333,1155.4156205,34662.468615,34662,1155.4,1156.9428269999999,34708.28481,34708,1156.9333333333334,1.3134969082893804,3,0,6,1,2,2,b'HB_1_frameB_foil.png',1158.2563239082892,34747.68971724868,34747,1158.2333333333333
18,1158.264568,34747.937040000004,34747,1158.2333333333333,1158.84648425,34765.3945275,34765,1158.8333333333333,1160.37387425,34811.2162275,34811,1160.3666666666666,1.5654894510516897,3,1,3,2,2,2,b'HB_1_frameB.png',1161.9393637010517,34858.18091103155,34858,1161.9333333333334
19,1161.9605307499999,34858.8159225,34858,1161.9333333333334,1162.5025575,34875.076725,34875,1162.5,1164.02977625,34920.893287499995,34920,1164.0,1.6598305128281936,1,0,6,1,2,2,b'NB_16_frameB_foil.png',1165.6896067628281,34970.68820288484,34970,1165.6666666666667
20,1165.7110894999998,34971.332684999994,34971,1165.7,1166.232634,34986.97902,34986,1166.2,1167.7600587499999,35032.8017625,35032,1167.7333333333333,1.9376386376097798,3,0,6,1,2,2,b'HB_9_frameB_foil.png',1169.6976973876097,35090.93092162829,35090,1169.6666666666667
21,1169.70785475,35091.2356425,35091,1169.7,1170.2295757499999,35106.8872725,35106,1170.2,1171.7568485,35152.705454999996,35152,1171.7333333333333,1.6436164090409875,2,0,7,1,2,3,b'SB_7_frameB_foil.png',1173.400464909041,35202.013947271225,35202,1173.4
22,1173.4139914999998,35202.41974499999,35202,1173.4,1173.91586725,35217.4760175,35217,1173.9,1175.4630877499999,35263.8926325,35263,1175.4333333333334,1.123241339228116,2,1,2,2,2,3,b'SB_1_frameA.png',1176.586329089228,35297.58987267684,35297,1176.5666666666666
23,1176.5996834999999,35297.990504999994,35297,1176.5666666666666,1177.18159075,35315.4477225,35315,1177.1666666666667,1178.72889825,35361.8669475,35361,1178.7,1.6601953959325328,1,0,6,1,2,2,b'NB_15_frameA_foil.png',1180.3890936459325,35411.672809377975,35411,1180.3666666666666
24,1180.41145425,35412.3436275,35412,1180.4,1181.01349725,35430.4049175,35430,1181.0,1182.540843,35476.22529,35476,1182.5333333333333,0.9479978767922148,2,0,7,1,2,3,b'SB_8_frameB_foil.png',1183.4888408767922,35504.66522630377,35504,1183.4666666666667
25,1183.50029425,35505.0088275,35505,1183.5,1184.10231675,35523.0695025,35523,1184.1,1185.629662,35568.88986,35568,1185.6,2.508106740191579,1,0,6,1,2,2,b'NB_29_frameA_foil.png',1188.1377687401916,35644.13306220575,35644,1188.1333333333334
26,1188.1458535,35644.375605,35644,1188.1333333333334,1188.7278085,35661.834255,35661,1188.7,1190.2751604999999,35708.25481499999,35708,1190.2666666666667,1.4927567833801731,2,1,2,2,2,3,b'SB_2_frameA.png',1191.76791728338,35753.0375185014,35753,1191.7666666666667
27,1191.79044625,35753.7133875,35753,1191.7666666666667,1192.33228325,35769.9684975,35769,1192.3,1211.3991405,36341.974214999995,36341,1211.3666666666666,2.86441065359395,1,0,5,1,2,1,b'NB_5_frameA_foil.png',1214.2635511535939,36427.90653460781,36427,1214.2333333333333
28,1214.2796915,36428.390745,36428,1214.2666666666667,1214.86153375,36445.8460125,36445,1214.8333333333333,1216.3888115,36491.664345,36491,1216.3666666666666,1.8035054608481005,1,1,4,2,2,1,b'NB_11_frameB.png',1218.192316960848,36545.76950882544,36545,1218.1666666666667
29,1218.199699,36545.99097,36545,1218.1666666666667,1218.7615887499999,36562.8476625,36562,1218.7333333333333,1220.3088025,36609.264075,36609,1220.3,0.7133011528057978,1,0,5,1,2,1,b'NB_25_frameA_foil.png',1221.0221036528058,36630.66310958417,36630,1221.0
30,1221.0415,36631.245,36631,1221.0333333333333,1221.62345775,36648.7037325,36648,1221.6,1223.15064975,36694.519492499996,36694,1223.1333333333334,1.634454563842155,2,1,3,2,2,2,b'SB_1_frameB.png',1224.785104313842,36743.55312941526,36743,1224.7666666666667
31,1224.79752625,36743.9257875,36743,1224.7666666666667,1225.379274,36761.37822,36761,1225.3666666666666,1226.90658575,36807.1975725,36807,1226.9,1.8792126446496695,1,1,3,2,2,2,b'NB_5_frameB.png',1228.7857983946496,36863.57395183949,36863,1228.7666666666667
32,1228.7911505,36863.734515,36863,1228.7666666666667,1229.3732607499999,36881.1978225,36881,1229.3666666666666,1230.9206582499999,36927.61974749999,36927,1230.9,1.3938480088254437,2,0,6,1,2,2,b'SB_3_frameA_foil.png',1232.3145062588253,36969.43518776476,36969,1232.3
33,1232.3310314999999,36969.930945,36969,1232.3,1232.8528025,36985.584075,36985,1232.8333333333333,1234.40002675,37032.0008025,37032,1234.4,1.6521740194875747,2,1,3,2,2,2,b'SB_5_frameB.png',1236.0522007694876,37081.566023084626,37081,1236.0333333333333
34,1236.07455225,37082.2365675,37082,1236.0666666666666,1236.61681275,37098.5043825,37098,1236.6,1238.1640419999999,37144.921259999996,37144,1238.1333333333334,2.4960481005255133,1,0,5,1,2,1,b'NB_26_frameB_foil.png',1240.6600901005254,37219.80270301576,37219,1240.6333333333334
35,1240.6767129999998,37220.30138999999,37220,1240.6666666666667,1241.17842625,37235.3527875,37235,1241.1666666666667,1242.7059135,37281.177404999995,37281,1242.7,1.0858867436181754,3,1,3,2,2,2,b'HB_4_frameB.png',1243.7918002436181,37313.75400730854,37313,1243.7666666666667
36,1243.7978632499999,37313.93589749999,37313,1243.7666666666667,1244.30004125,37329.0012375,37329,1244.3,1245.827207,37374.816210000005,37374,1245.8,1.9804096999578178,3,0,5,1,2,1,b'HB_1_frameA_foil.png',1247.8076166999579,37434.22850099874,37434,1247.8
37,1247.8286795,37434.860385,37434,1247.8,1248.39068,37451.7204,37451,1248.3666666666666,1249.9178602499999,37497.5358075,37497,1249.9,2.389353755512275,1,0,5,1,2,1,b'NB_6_frameB_foil.png',1252.3072140055122,37569.216420165365,37569,1252.3
38,1252.32985975,37569.8957925,37569,1252.3,1252.93204975,37587.9614925,37587,1252.9,1254.459349,37633.78047,37633,1254.4333333333334,1.3280079297255725,3,0,5,1,2,1,b'HB_1_frameA_foil.png',1255.7873569297255,37673.620707891765,37673,1255.7666666666667
39,1255.79449875,37673.8349625,37673,1255.7666666666667,1256.376413,37691.29239,37691,1256.3666666666666,1257.9237865,37737.713595,37737,1257.9,1.8142188901547343,3,1,4,2,2,1,b'HB_3_frameA.png',1259.7380053901547,37792.14016170464,37792,1259.7333333333333
40,1259.76354425,37792.9063275,37792,1259.7333333333333,1260.2853255,37808.559765,37808,1260.2666666666667,1261.81251275,37854.3753825,37854,1261.8,1.7275278228335083,2,0,7,1,2,3,b'SB_6_frameB_foil.png',1263.5400405728335,37906.20121718501,37906,1263.5333333333333
41,1263.5495262499999,37906.485787499994,37906,1263.5333333333333,1264.09158075,37922.747422500004,37922,1264.0666666666666,1265.6388805,37969.166415,37969,1265.6333333333334,1.5098644617246464,1,0,5,1,2,1,b'NB_19_frameA_foil.png',1267.1487449617246,38014.46234885174,38014,1267.1333333333334
42,1267.168669,38015.06007,38015,1267.1666666666667,1267.7308424999999,38031.925274999994,38031,1267.7,1269.258192,38077.74576,38077,1269.2333333333333,1.7031231469009072,2,1,3,2,2,2,b'SB_6_frameB.png',1270.961315146901,38128.839454407025,38128,1270.9333333333334
43,1270.9747882499998,38129.24364749999,38129,1270.9666666666667,1271.4763025,38144.289075,38144,1271.4666666666667,1273.0038215,38190.114645,38190,1273.0,0.17397628806065768,1,1,4,2,2,1,b'NB_25_frameB.png',1273.1777977880606,38195.33393364182,38195,1273.1666666666667
44,1273.19274125,38195.782237499996,38195,1273.1666666666667,1273.7147264999999,38211.441795,38211,1273.7,1275.26216,38257.8648,38257,1275.2333333333333,0.3170659235911444,1,0,6,1,2,2,b'NB_21_frameA_foil.png',1275.5792259235911,38267.37677770774,38267,1275.5666666666666
45,1275.589894,38267.69682,38267,1275.5666666666666,1276.1318099999999,38283.9543,38283,1276.1,1277.68209475,38330.4628425,38330,1277.6666666666667,1.4028289599809796,2,0,6,1,2,2,b'SB_8_frameA_foil.png',1279.084923709981,38372.54771129943,38372,1279.0666666666666
46,1279.09143425,38372.7430275,38372,1279.0666666666666,1279.693752,38390.81256,38390,1279.6666666666667,1281.22093825,38436.6281475,38436,1281.2,1.5625520579051226,2,0,7,1,2,3,b'SB_6_frameA_foil.png',1282.7834903079051,38483.50470923715,38483,1282.7666666666667
47,1282.79533875,38483.8601625,38483,1282.7666666666667,1283.3173044999999,38499.519134999995,38499,1283.3,1284.844615,38545.338449999996,38545,1284.8333333333333,1.2866144032450393,2,1,3,2,2,2,b'SB_2_frameA.png',1286.131229403245,38583.93688209735,38583,1286.1
48,1286.1376135,38584.128405,38584,1286.1333333333334,1286.659574,38599.78722,38599,1286.6333333333334,1288.2074949999999,38646.22485,38646,1288.2,1.2755960654467344,3,0,5,1,2,1,b'HB_3_frameB_foil.png',1289.4830910654466,38684.4927319634,38684,1289.4666666666667
49,1289.50317825,38685.0953475,38685,1289.5,1290.06504325,38701.951297499996,38701,1290.0333333333333,1291.592232,38747.76696,38747,1291.5666666666666,1.9825062606250867,2,1,2,2,2,3,b'SB_9_frameA.png',1293.574738260625,38807.24214781875,38807,1293.5666666666666
50,1293.59050075,38807.7150225,38807,1293.5666666666666,1294.112279,38823.36837,38823,1294.1,1295.659608,38869.788239999994,38869,1295.6333333333334,1.2300165659980848,2,0,7,1,2,3,b'SB_2_frameB_foil.png',1296.889624565998,38906.68873697994,38906,1296.8666666666666
51,1296.90180225,38907.0540675,38907,1296.9,1297.4438055,38923.314165,38923,1297.4333333333334,1298.9911515,38969.734545,38969,1298.9666666666667,1.0840229097520933,2,0,7,1,2,3,b'SB_3_frameB_foil.png',1300.075174409752,39002.25523229256,39002,1300.0666666666666
52,1300.087288,39002.61864,39002,1300.0666666666666,1300.62914475,39018.8743425,39018,1300.6,1302.1563635,39064.690905,39064,1302.1333333333334,1.2616715769981965,2,1,2,2,2,3,b'SB_1_frameB.png',1303.4180350769982,39102.54105230995,39102,1303.4
53,1303.4259634999999,39102.778905,39102,1303.4,1303.9878645,39119.635935,39119,1303.9666666666667,1305.5151955,39165.455864999996,39165,1305.5,1.1081044632010162,1,1,3,2,2,2,b'NB_21_frameB.png',1306.623299963201,39198.69899889603,39198,1306.6
54,1306.633961,39199.01883,39199,1306.6333333333334,1307.1960895,39215.882685,39215,1307.1666666666667,1308.74342325,39262.302697499996,39262,1308.7333333333333,1.8683759954292327,1,1,3,2,2,2,b'NB_1_frameB.png',1310.6117992454292,39318.35397736287,39318,1310.6
55,1310.6357375,39319.072125,39319,1310.6333333333334,1311.1574775,39334.724324999996,39334,1311.1333333333334,1312.70480175,39381.1440525,39381,1312.7,1.238693703431636,2,0,7,1,2,3,b'SB_3_frameB_foil.png',1313.9434954534315,39418.30486360295,39418,1313.9333333333334
56,1313.96017425,39418.80522749999,39418,1313.9333333333334,1314.54196525,39436.2589575,39436,1314.5333333333333,1316.06953275,39482.0859825,39482,1316.0666666666666,0.916646615951322,1,1,3,2,2,2,b'NB_30_frameA.png',1316.9861793659513,39509.58538097854,39509,1316.9666666666667
57,1317.00344225,39510.1032675,39510,1317.0,1317.5653419999999,39526.96025999999,39526,1317.5333333333333,1319.0926215,39572.778645,39572,1319.0666666666666,0.07689765258692205,1,1,3,2,2,2,b'NB_15_frameB.png',1319.1695191525869,39575.085574577606,39575,1319.1666666666667
58,1319.1746725,39575.240175,39575,1319.1666666666667,1319.6763495,39590.290485,39590,1319.6666666666667,1321.2041467499998,39636.1244025,39636,1321.2,1.0415025328984484,2,0,7,1,2,3,b'SB_9_frameB_foil.png',1322.2456492828983,39667.36947848695,39667,1322.2333333333333
59,1322.25524025,39667.6572075,39667,1322.2333333333333,1322.83720275,39685.1160825,39685,1322.8333333333333,1324.36433825,39730.930147499996,39730,1324.3333333333333,2.5546065812231973,1,1,3,2,2,2,b'NB_9_frameB.png',1326.9189448312231,39807.56834493669,39807,1326.9
60,1326.9327074999999,39807.981224999996,39807,1326.9,1327.49460075,39824.8380225,39824,1327.4666666666667,1329.02185825,39870.6557475,39870,1329.0,1.042044147849083,2,1,2,2,2,3,b'SB_8_frameB.png',1330.063902397849,39901.91707193547,39901,1330.0333333333333
61,1330.0826885,39902.480655,39902,1330.0666666666666,1330.6646457499999,39919.9393725,39919,1330.6333333333334,1332.2119882499999,39966.359647499994,39966,1332.2,2.168184507638216,3,0,6,1,2,2,b'HB_2_frameB_foil.png',1334.380172757638,40031.40518272914,40031,1334.3666666666666
62,1334.403942,40032.118259999996,40032,1334.4,1334.9256317499999,40047.768952499995,40047,1334.9,1336.4730204999998,40094.19061499999,40094,1336.4666666666667,2.0566338335629553,2,1,2,2,2,3,b'SB_1_frameA.png',1338.5296543335628,40155.88963000688,40155,1338.5
63,1338.549245,40156.47735,40156,1338.5333333333333,1339.07099625,40172.1298875,40172,1339.0666666666666,1340.5983595,40217.950785,40217,1340.5666666666666,1.4956567607587203,2,1,2,2,2,3,b'SB_2_frameA.png',1342.0940162607587,40262.82048782276,40262,1342.0666666666666
64,1342.1107835,40263.323505,40263,1342.1,1342.69295825,40280.788747499995,40280,1342.6666666666667,1344.2202015,40326.606045,40326,1344.2,1.1612380964215845,2,1,2,2,2,3,b'SB_5_frameA.png',1345.3814395964216,40361.44318789265,40361,1345.3666666666666
65,1345.4023835,40362.071505,40362,1345.4,1345.98435075,40379.5305225,40379,1345.9666666666667,1347.511638,40425.34914,40425,1347.5,1.833138011279516,2,1,2,2,2,3,b'SB_1_frameA.png',1349.3447760112795,40480.343280338384,40480,1349.3333333333333
66,1349.36612825,40480.9838475,40480,1349.3333333333333,1349.94805425,40498.441627500004,40498,1349.9333333333334,1351.4754834999999,40544.264505,40544,1351.4666666666667,1.1495341210393235,2,1,2,2,2,3,b'SB_2_frameB.png',1352.6250176210392,40578.75052863118,40578,1352.6
67,1352.62999675,40578.899902499994,40578,1352.6,1353.23199325,40596.9597975,40596,1353.2,1354.7594165,40642.782495,40642,1354.7333333333333,1.033977260463871,1,0,6,1,2,2,b'NB_2_frameB_foil.png',1355.793393760464,40673.801812813916,40673,1355.7666666666667
68,1355.8115229999999,40674.345689999995,40674,1355.8,1356.3534975,40690.604925,40690,1356.3333333333333,1357.8806935,40736.420805,40736,1357.8666666666666,1.9563158856472,3,0,6,1,2,2,b'HB_6_frameA_foil.png',1359.8370093856472,40795.11028156942,40795,1359.8333333333333
69,1359.8519019999999,40795.55706,40795,1359.8333333333333,1360.393742,40811.81226,40811,1360.3666666666666,1361.921686,40857.650579999994,40857,1361.9,1.9907895802753046,2,0,2,2,1,3,b'SB_4_frameB_foil.png',1363.9124755802752,40917.37426740825,40917,1363.9
70,1363.92684575,40917.8053725,40917,1363.9,1364.4688294999999,40934.06488499999,40934,1364.4666666666667,1365.99612525,40979.8837575,40979,1365.9666666666667,1.3745781561592594,2,1,2,2,2,3,b'SB_2_frameB.png',1367.3707034061592,41021.12110218478,41021,1367.3666666666666
71,1367.3868185,41021.604555,41021,1367.3666666666666,1367.94892225,41038.467667499994,41038,1367.9333333333334,1369.49725175,41084.9175525,41084,1369.4666666666667,2.279712559771724,1,0,6,1,2,2,b'NB_28_frameB_foil.png',1371.7769643097718,41153.308929293155,41153,1371.7666666666667
72,1371.7871794999999,41153.615385,41153,1371.7666666666667,1372.3696002499998,41171.088007499995,41171,1372.3666666666666,1373.91746675,41217.524002499995,41217,1373.9,1.7967698654392734,1,0,5,1,2,1,b'NB_11_frameA_foil.png',1375.7142366154392,41271.42709846317,41271,1375.7
73,1375.73469575,41272.040872499994,41272,1375.7333333333333,1376.27672825,41288.3018475,41288,1376.2666666666667,1377.8241415,41334.724245,41334,1377.8,0.30288234434556216,1,1,3,2,2,2,b'NB_16_frameA.png',1378.1270238443456,41343.810715330364,41343,1378.1
74,1378.13479025,41344.0437075,41344,1378.1333333333334,1378.71675175,41361.5025525,41361,1378.7,1380.264046,41407.92138,41407,1380.2333333333333,1.2135871567297727,2,0,2,2,1,3,b'SB_1_frameB_foil.png',1381.4776331567298,41444.32899470189,41444,1381.4666666666667
75,1381.49007425,41444.7022275,41444,1381.4666666666667,1382.01181925,41460.354577499995,41460,1382.0,1383.5597337499999,41506.792012499995,41506,1383.5333333333333,1.2155531782191247,3,0,6,1,2,2,b'HB_7_frameB_foil.png',1384.775286928219,41543.25860784657,41543,1384.7666666666667
76,1384.794295,41543.82885,41543,1384.7666666666667,1385.2959672499999,41558.879017499996,41558,1385.2666666666667,1386.823089,41604.69267,41604,1386.8,1.4692793096182868,1,0,3,2,1,2,b'NB_22_frameB_foil.png',1388.2923683096183,41648.771049288545,41648,1388.2666666666667
77,1388.30727575,41649.218272499995,41649,1388.3,1388.90930525,41667.2791575,41667,1388.9,1390.43657575,41713.0972725,41713,1390.4333333333334,2.207009676611051,3,0,6,1,2,2,b'HB_6_frameB_foil.png',1392.643585426611,41779.307562798334,41779,1392.6333333333334
78,1392.6677164999999,41780.031494999996,41780,1392.6666666666667,1393.26973175,41798.0919525,41798,1393.2666666666667,1394.8173775,41844.521325,41844,1394.8,1.9185880116419867,2,1,2,2,2,3,b'SB_5_frameA.png',1396.735965511642,41902.07896534926,41902,1396.7333333333333
79,1396.7443265,41902.329795,41902,1396.7333333333333,1397.28614075,41918.5842225,41918,1397.2666666666667,1398.8334665,41965.003995,41965,1398.8333333333333,1.2847803013864905,2,0,2,2,1,3,b'SB_7_frameA_foil.png',1400.1182468013865,42003.547404041594,42003,1400.1
80,1400.1258415,42003.775245,42003,1400.1,1400.728093,42021.842789999995,42021,1400.7,1402.2554504999998,42067.66351499999,42067,1402.2333333333333,1.9997678991639987,1,1,3,2,2,2,b'NB_3_frameB.png',1404.2552183991638,42127.65655197491,42127,1404.2333333333333
81,1404.2635715,42127.907145,42127,1404.2333333333333,1404.7855607499998,42143.5668225,42143,1404.7666666666667,1406.33282025,42189.984607499995,42189,1406.3,1.375854881014675,3,1,3,2,2,2,b'HB_2_frameA.png',1407.7086751310146,42231.260253930435,42231,1407.7
82,1407.720891,42231.626729999996,42231,1407.7,1408.2225575,42246.676725,42246,1408.2,1483.27744375,44498.3233125,44498,1483.2666666666667,0.8340590442530811,1,1,6,1,1,2,b'NB_8_frameA.png',1484.111502794253,44523.34508382759,44523,1484.1
83,1484.1275389999998,44523.82616999999,44523,1484.1,1484.7095405,44541.286215,44541,1484.7,1486.2568999999999,44587.706999999995,44587,1486.2333333333333,1.8039363258285448,3,0,6,1,2,2,b'HB_2_frameB_foil.png',1488.0608363258284,44641.82508977485,44641,1488.0333333333333
84,1488.08357475,44642.5072425,44642,1488.0666666666666,1488.625398,44658.76194,44658,1488.6,1490.17334825,44705.2004475,44705,1490.1666666666667,0.8266981717897579,1,0,5,1,2,1,b'NB_7_frameA_foil.png',1491.0000464217896,44730.00139265369,44730,1491.0
85,1491.00566025,44730.169807499995,44730,1491.0,1491.6077417499998,44748.2322525,44748,1491.6,1493.13508725,44794.0526175,44794,1493.1333333333334,1.5561129191191867,3,1,3,2,2,2,b'HB_8_frameB.png',1494.6912001691192,44840.73600507357,44840,1494.6666666666667
86,1494.702842,44841.08526,44841,1494.7,1495.284795,44858.54385,44858,1495.2666666666667,1496.8321265,44904.963794999996,44904,1496.8,1.4760186237981543,2,0,6,1,2,2,b'SB_2_frameA_foil.png',1498.308145123798,44949.24435371394,44949,1498.3
87,1498.3297195,44949.891585,44949,1498.3,1498.8514652499998,44965.54395749999,44965,1498.8333333333333,1500.3986297499998,45011.95889249999,45011,1500.3666666666666,1.4840794373303652,3,0,6,1,2,2,b'HB_1_frameA_foil.png',1501.8827091873302,45056.4812756199,45056,1501.8666666666666
88,1501.8925855,45056.777565,45056,1501.8666666666666,1502.4143299999998,45072.429899999996,45072,1502.4,1503.96166825,45118.850047500004,45118,1503.9333333333334,2.2865462008630857,3,1,4,2,2,1,b'HB_1_frameB.png',1506.248214450863,45187.446433525896,45187,1506.2333333333333
89,1506.26221625,45187.866487499996,45187,1506.2333333333333,1506.8040075,45204.120225,45204,1506.8,1508.3314305,45249.942915,45249,1508.3,1.7184093061368912,2,0,2,2,1,3,b'SB_1_frameA_foil.png',1510.0498398061368,45301.49519418411,45301,1510.0333333333333
90,1510.07265125,45302.1795375,45302,1510.0666666666666,1510.5741282499998,45317.2238475,45317,1510.5666666666666,1512.121541,45363.64623,45363,1512.1,1.5710005932487547,2,1,2,2,2,3,b'SB_4_frameB.png',1513.6925415932487,45410.77624779746,45410,1513.6666666666667
91,1513.716052,45411.48156,45411,1513.7,1514.3180587499999,45429.5417625,45429,1514.3,1515.865358,45475.96074,45475,1515.8333333333333,1.257327280123718,2,1,2,2,2,3,b'SB_1_frameB.png',1517.1226852801237,45513.680558403714,45513,1517.1
92,1517.1426677499999,45514.2800325,45514,1517.1333333333334,1517.724741,45531.74223,45531,1517.7,1519.2518965,45577.556895,45577,1519.2333333333333,1.6966450534528121,1,1,3,2,2,2,b'NB_2_frameA.png',1520.9485415534527,45628.456246603586,45628,1520.9333333333334
93,1520.9690807499999,45629.072422499994,45629,1520.9666666666667,1521.49077875,45644.72336249999,45644,1521.4666666666667,1523.0380902499999,45691.142707499996,45691,1523.0333333333333,0.8795315942261368,3,0,6,1,2,2,b'HB_5_frameB_foil.png',1523.917621844226,45717.52865532678,45717,1523.9
94,1523.93824125,45718.1472375,45718,1523.9333333333334,1524.4598067499999,45733.794202499994,45733,1524.4333333333334,1525.9872544999998,45779.617634999995,45779,1525.9666666666667,0.8878766257548705,3,1,3,2,2,2,b'HB_4_frameB.png',1526.8751311257547,45806.25393377264,45806,1526.8666666666666
95,1526.8921695,45806.765085,45806,1526.8666666666666,1527.4138612499999,45822.4158375,45822,1527.4,1528.94121075,45868.2363225,45868,1528.9333333333334,1.8060146421194077,3,0,6,1,2,2,b'HB_8_frameA_foil.png',1530.7472253921194,45922.41676176358,45922,1530.7333333333333
96,1530.771884,45923.15652,45923,1530.7666666666667,1531.33377225,45940.0131675,45940,1531.3333333333333,1532.86166775,45985.8500325,45985,1532.8333333333333,0.6331998565001413,3,0,3,2,1,2,b'HB_4_frameA_foil.png',1533.4948676065,46004.846028195,46004,1533.4666666666667
97,1533.5124497499999,46005.373492499995,46005,1533.5,1534.09434425,46022.8303275,46022,1534.0666666666666,1535.64234475,46069.2703425,46069,1535.6333333333334,1.8098674342036247,3,1,3,2,2,2,b'HB_2_frameB.png',1537.4522121842035,46123.56636552611,46123,1537.4333333333334
98,1537.46258625,46123.8775875,46123,1537.4333333333334,1538.0244774999999,46140.734325,46140,1538.0,1539.571763,46187.15289,46187,1539.5666666666666,0.7621475521009415,2,0,2,2,1,3,b'SB_1_frameB_foil.png',1540.3339105521009,46210.017316563026,46210,1540.3333333333333
99,1540.3566985,46210.700955,46210,1540.3333333333333,1540.9587447499998,46228.76234249999,46228,1540.9333333333334,1542.48628925,46274.5886775,46274,1542.4666666666667,1.209047592827119,2,1,2,2,2,3,b'SB_3_frameB.png',1543.6953368428271,46310.86010528482,46310,1543.6666666666667
100,1543.7157965,46311.473894999996,46311,1543.7,1544.3378707499999,46330.13612249999,46330,1544.3333333333333,1545.86536675,46375.9610025,46375,1545.8333333333333,2.0011795588070527,3,0,2,2,1,3,b'HB_4_frameA_foil.png',1547.866546308807,46435.99638926421,46435,1547.8333333333333
101,1547.8913069999999,46436.73921,46436,1547.8666666666666,1548.4533215,46453.599644999995,46453,1548.4333333333334,1549.9805529999999,46499.41658999999,46499,1549.9666666666667,1.7033359117340297,2,0,2,2,1,3,b'SB_4_frameA_foil.png',1551.683888911734,46550.516667352014,46550,1551.6666666666667
102,1551.7015454999998,46551.046364999995,46551,1551.7,1552.26348175,46567.9044525,46567,1552.2333333333333,1553.8309507499998,46614.92852249999,46614,1553.8,0.5321577748982236,1,0,3,2,1,2,b'NB_18_frameB_foil.png',1554.363108524898,46630.89325574694,46630,1554.3333333333333
103,1554.3851115,46631.553345,46631,1554.3666666666666,1554.8870075,46646.610225,46646,1554.8666666666666,1556.4144219999998,46692.43265999999,46692,1556.4,0.9001128891250119,3,1,6,1,1,2,b'HB_8_frameB.png',1557.3145348891248,46719.43604667374,46719,1557.3
104,1557.323479,46719.70437,46719,1557.3,1557.88518575,46736.555572499994,46736,1557.8666666666666,1559.43262725,46782.9788175,46782,1559.4,1.4731793754035607,3,0,2,2,1,3,b'HB_8_frameA_foil.png',1560.9058066254036,46827.174198762106,46827,1560.9
105,1560.91627725,46827.4883175,46827,1560.9,1561.458091,46843.74273,46843,1561.4333333333334,1562.9852999999998,46889.558999999994,46889,1562.9666666666667,1.2499888874590397,3,0,2,2,1,3,b'HB_1_frameB_foil.png',1564.2352888874589,46927.058666623765,46927,1564.2333333333333
106,1564.2414485,46927.243454999996,46927,1564.2333333333333,1564.783277,46943.49831,46943,1564.7666666666667,1566.33056375,46989.9169125,46989,1566.3,0.8375232483958825,1,1,3,2,2,2,b'NB_12_frameA.png',1567.168086998396,47015.04260995187,47015,1567.1666666666667
107,1567.18592075,47015.5776225,47015,1567.1666666666667,1567.687649,47030.62947,47030,1567.6666666666667,1569.214821,47076.44463,47076,1569.2,2.558738085324876,1,0,3,2,1,2,b'NB_24_frameB_foil.png',1571.773559085325,47153.206772559744,47153,1571.7666666666667
108,1571.791025,47153.73075,47153,1571.7666666666667,1572.353103,47170.593089999995,47170,1572.3333333333333,1573.88035225,47216.4105675,47216,1573.8666666666666,1.836279692943208,2,0,2,2,1,3,b'SB_1_frameA_foil.png',1575.7166319429432,47271.4989582883,47271,1575.7
109,1575.72624425,47271.7873275,47271,1575.7,1576.328096,47289.84288,47289,1576.3,1577.8554565,47335.663694999996,47335,1577.8333333333333,1.5558988703414798,2,1,2,2,2,3,b'SB_4_frameB.png',1579.4113553703414,47382.34066111024,47382,1579.4
110,1579.4289405,47382.868214999995,47382,1579.4,1579.970975,47399.12925,47399,1579.9666666666667,1581.498276,47444.948280000004,47444,1581.4666666666667,1.8536291143391281,3,1,2,2,2,3,b'HB_1_frameB.png',1583.3519051143392,47500.55715343018,47500,1583.3333333333333
111,1583.361725,47500.85175,47500,1583.3333333333333,1583.8834777499999,47516.50433249999,47516,1583.8666666666666,1585.430891,47562.92673,47562,1585.4,1.7858913475647569,2,0,2,2,1,3,b'SB_5_frameB_foil.png',1587.2167823475647,47616.50347042694,47616,1587.2
112,1587.2298389999999,47616.895169999996,47616,1587.2,1587.8320645,47634.961935,47634,1587.8,1589.3793704999998,47681.381115,47681,1589.3666666666666,1.5819465327076614,2,0,2,2,1,3,b'SB_5_frameB_foil.png',1590.9613170327075,47728.839510981226,47728,1590.9333333333334
113,1590.9832072499999,47729.4962175,47729,1590.9666666666667,1591.5651592499999,47746.954777499996,47746,1591.5333333333333,1593.112568,47793.37704,47793,1593.1,1.2363881065975875,3,0,2,2,1,3,b'HB_3_frameA_foil.png',1594.3489561065976,47830.46868319793,47830,1594.3333333333333
114,1594.3631182499998,47830.893547499996,47830,1594.3333333333333,1594.9049532499998,47847.148597499996,47847,1594.9,1596.4322905,47892.968714999995,47892,1596.4,1.1272034191060811,1,1,3,2,2,2,b'NB_23_frameB.png',1597.559493919106,47926.78481757318,47926,1597.5333333333333
115,1597.5689085,47927.067254999994,47927,1597.5666666666666,1598.17110375,47945.1331125,47945,1598.1666666666667,1599.7183842499999,47991.55152749999,47991,1599.7,1.963120612083003,2,1,2,2,2,3,b'SB_7_frameA.png',1601.6815048620829,48050.44514586248,48050,1601.6666666666667
116,1601.7001265,48051.003795,48051,1601.7,1602.2619957499999,48067.8598725,48067,1602.2333333333333,1603.78937125,48113.681137499996,48113,1603.7666666666667,1.8118200940079987,1,0,3,2,1,2,b'NB_27_frameA_foil.png',1605.601191344008,48168.035740320236,48168,1605.6
117,1605.6073287499999,48168.219862499995,48168,1605.6,1606.1293147499998,48183.879442499994,48183,1606.1,1607.67658025,48230.297407499995,48230,1607.6666666666667,1.0028958695475012,1,0,3,2,1,2,b'NB_4_frameB_foil.png',1608.6794761195474,48260.38428358642,48260,1608.6666666666667
118,1608.693482,48260.80446,48260,1608.6666666666667,1609.27565775,48278.2697325,48278,1609.2666666666667,1610.8228502499999,48324.6855075,48324,1610.8,1.9789418695727363,2,0,2,2,1,3,b'SB_2_frameB_foil.png',1612.8017921195726,48384.05376358718,48384,1612.8
119,1612.8176535,48384.529605,48384,1612.8,1613.35992625,48400.7977875,48400,1613.3333333333333,1614.88711475,48446.6134425,48446,1614.8666666666666,0.09847582399379462,1,0,3,2,1,2,b'NB_30_frameB_foil.png',1614.9855905739937,48449.56771721981,48449,1614.9666666666667
120,1615.0049757499999,48450.1492725,48450,1615.0,1615.5670794999999,48467.012384999995,48467,1615.5666666666666,1617.0943805,48512.831415,48512,1617.0666666666666,1.8028250507777557,3,0,2,2,1,3,b'HB_3_frameB_foil.png',1618.8972055507777,48566.91616652333,48566,1618.8666666666666
121,1618.9164967499999,48567.494902499995,48567,1618.9,1619.47826375,48584.3479125,48584,1619.4666666666667,1621.0054767499998,48630.164302499994,48630,1621.0,1.184738202369772,3,0,2,2,1,3,b'HB_1_frameA_foil.png',1622.1902149523696,48665.70644857109,48665,1622.1666666666667
122,1622.21448975,48666.4346925,48666,1622.2,1622.7964304999998,48683.892915,48683,1622.7666666666667,1624.3437367499998,48730.31210249999,48730,1624.3333333333333,1.9106723049189895,3,0,2,2,1,3,b'HB_4_frameB_foil.png',1626.2544090549188,48787.63227164756,48787,1626.2333333333333
123,1626.26287325,48787.886197499996,48787,1626.2333333333333,1626.7846475,48803.539424999995,48803,1626.7666666666667,1628.33202625,48849.9607875,48849,1628.3,1.0117869805544615,1,0,3,2,1,2,b'NB_8_frameB_foil.png',1629.3438132305544,48880.314396916634,48880,1629.3333333333333
124,1629.3645,48880.935,48880,1629.3333333333333,1629.9465074999998,48898.39522499999,48898,1629.9333333333334,1631.47364225,48944.2092675,48944,1631.4666666666667,0.9405444293515757,1,1,3,2,2,2,b'NB_4_frameA.png',1632.4141866793516,48972.42560038055,48972,1632.4
125,1632.438803,48973.16409,48973,1632.4333333333334,1633.0408375,48991.225125,48991,1633.0333333333333,1634.5681175,49037.043525,49037,1634.5666666666666,1.2761371311498806,2,0,6,1,2,2,b'SB_5_frameA_foil.png',1635.8442546311499,49075.3276389345,49075,1635.8333333333333
126,1635.8632535,49075.897605,49075,1635.8333333333333,1636.4654899999998,49093.9647,49093,1636.4333333333334,1637.9927289999998,49139.78186999999,49139,1637.9666666666667,1.594404953531921,1,0,5,1,2,1,b'NB_20_frameB_foil.png',1639.5871339535317,49187.61401860595,49187,1639.5666666666666
127,1639.6070392499998,49188.211177499994,49188,1639.6,1640.1689285,49205.067855,49205,1640.1666666666667,1641.69663075,49250.8989225,49250,1641.6666666666667,1.6329499050043523,3,1,5,1,1,1,b'HB_3_frameA.png',1643.3295806550043,49299.88741965013,49299,1643.3
128,1643.3483545,49300.450635,49300,1643.3333333333333,1643.8900035,49316.700104999996,49316,1643.8666666666666,1645.4172629999998,49362.517889999996,49362,1645.4,0.990691468003206,1,1,3,2,2,2,b'NB_17_frameB.png',1646.407954468003,49392.23863404009,49392,1646.4
129,1646.42284075,49392.6852225,49392,1646.4,1646.98454275,49409.5362825,49409,1646.9666666666667,1648.5326415,49455.979244999995,49455,1648.5,2.2883020131848752,1,0,3,2,1,2,b'NB_13_frameA_foil.png',1650.8209435131848,49524.62830539554,49524,1650.8
130,1650.83607375,49525.0822125,49525,1650.8333333333333,1651.3778955,49541.336865,49541,1651.3666666666666,1652.92532825,49587.7598475,49587,1652.9,-0.34063318907283247,1,1,3,2,2,2,b'NB_27_frameB.png',1652.584695060927,49577.54085182781,49577,1652.5666666666666
131,1652.5915162499998,49577.7454875,49577,1652.5666666666666,1653.15361925,49594.6085775,49594,1653.1333333333334,1654.68098825,49640.4296475,49640,1654.6666666666667,1.755517086130567,1,0,3,2,1,2,b'NB_9_frameA_foil.png',1656.4365053361305,49693.09516008392,49693,1656.4333333333334
132,1656.4523717499999,49693.57115249999,49693,1656.4333333333334,1657.01422375,49710.4267125,49710,1657.0,1658.5614464999999,49756.843394999996,49756,1658.5333333333333,0.9656769066350535,1,1,3,2,2,2,b'NB_18_frameA.png',1659.527123406635,49785.81370219905,49785,1659.5
133,1659.54685675,49786.4057025,49786,1659.5333333333333,1660.1088525,49803.265575,49803,1660.1,1661.65622975,49849.6868925,49849,1661.6333333333334,2.249038327834569,1,1,3,2,2,2,b'NB_6_frameA.png',1663.9052680778345,49917.15804233504,49917,1663.9
134,1663.91743325,49917.5229975,49917,1663.9,1664.43914275,49933.1742825,49933,1664.4333333333334,1665.9865217499998,49979.59565249999,49979,1665.9666666666667,1.480512144160457,1,1,3,2,2,2,b'NB_13_frameB.png',1667.4670338941603,50024.01101682481,50024,1667.4666666666667
135,1667.4832872499999,50024.498617499994,50024,1667.4666666666667,1668.0250575,50040.751725,50040,1668.0,1669.5524532499999,50086.5735975,50086,1669.5333333333333,1.0185649174964055,3,1,2,2,2,3,b'HB_2_frameA.png',1670.5710181674963,50117.13054502489,50117,1670.5666666666666
136,1670.578574,50117.35722,50117,1670.5666666666666,1671.0804125,50132.412375,50132,1671.0666666666666,1672.6277269999998,50178.831809999996,50178,1672.6,1.0322786894394085,3,1,2,2,2,3,b'HB_1_frameB.png',1673.6600056894392,50209.80017068318,50209,1673.6333333333334
137,1673.679434,50210.383019999994,50210,1673.6666666666667,1674.24133625,50227.240087499995,50227,1674.2333333333333,1675.7688597499998,50273.0657925,50273,1675.7666666666667,1.479804152622819,2,0,2,2,1,3,b'SB_4_frameA_foil.png',1677.2486639026226,50317.45991707868,50317,1677.2333333333333
138,1677.271178,50318.13534,50318,1677.2666666666667,1677.8731515,50336.194545,50336,1677.8666666666666,1679.4206514999998,50382.619544999994,50382,1679.4,1.675924523966387,2,1,2,2,2,3,b'SB_8_frameA.png',1681.0965760239662,50432.897280718986,50432,1681.0666666666666
139,1681.10672325,50433.2016975,50433,1681.1,1681.60822975,50448.2468925,50448,1681.6,1683.1356019999998,50494.06806,50494,1683.1333333333334,2.8211395391263068,1,1,3,2,2,2,b'NB_19_frameB.png',1685.9567415391261,50578.70224617379,50578,1685.9333333333334
140,1685.9744632499999,50579.233897499995,50579,1685.9666666666667,1686.57655525,50597.296657499995,50597,1686.5666666666666,1688.103723,50643.11169,50643,1688.1,1.5083289300091565,3,1,2,2,2,3,b'HB_6_frameA.png',1689.612051930009,50688.36155790027,50688,1689.6
141,1689.633093,50688.99279,50688,1689.6,1690.2351334999998,50707.054005,50707,1690.2333333333333,1691.783058,50753.49174,50753,1691.7666666666667,1.0717416201950982,1,1,3,2,2,2,b'NB_14_frameA.png',1692.854799620195,50785.64398860585,50785,1692.8333333333333
142,1692.8677284999999,50786.031854999994,50786,1692.8666666666666,1693.4095515,50802.286544999995,50802,1693.4,1694.95669175,50848.70075249999,50848,1694.9333333333334,0.7063230697531253,3,1,4,2,2,1,b'HB_5_frameA.png',1695.663014819753,50869.89044459259,50869,1695.6333333333334
143,1695.6683739999999,50870.051219999994,50870,1695.6666666666667,1696.230474,50886.91422,50886,1696.2,1697.75784175,50932.735252499995,50932,1697.7333333333333,1.149768230272457,1,1,3,2,2,2,b'NB_28_frameA.png',1698.9076099802724,50967.22829940817,50967,1698.9
144,1698.92909825,50967.8729475,50967,1698.9,1699.51104625,50985.331387499995,50985,1699.5,1701.0584695,51031.754085,51031,1701.0333333333333,1.846955107524991,3,1,2,2,2,3,b'HB_6_frameA.png',1702.905424607525,51087.16273822575,51087,1702.9
145,1702.9264349999999,51087.79304999999,51087,1702.9,1703.4682845,51104.048535,51104,1703.4666666666667,1705.01579625,51150.4738875,51150,1705.0,2.0679676870349795,3,0,2,2,1,3,b'HB_5_frameA_foil.png',1707.083763937035,51212.512918111046,51212,1707.0666666666666
146,1707.1045235,51213.135705,51213,1707.1,1707.6664214999998,51229.992645,51229,1707.6333333333334,1709.1937094999998,51275.811284999996,51275,1709.1666666666667,1.8294785019243136,1,1,4,2,2,1,b'NB_20_frameA.png',1711.0231880019242,51330.695640057726,51330,1711.0
147,1711.0445485,51331.336455,51331,1711.0333333333333,1711.5462452499999,51346.387357499996,51346,1711.5333333333333,1713.093652,51392.80956,51392,1713.0666666666666,1.906109185074456,2,0,2,2,1,3,b'SB_9_frameA_foil.png',1714.9997611850745,51449.992835552235,51449,1714.9666666666667
148,1715.0061695,51450.185085,51450,1715.0,1715.6082442499999,51468.247327499994,51468,1715.6,1717.15568025,51514.6704075,51514,1717.1333333333334,2.325249608955346,1,0,3,2,1,2,b'NB_10_frameB_foil.png',1719.4809298589553,51584.42789576866,51584,1719.4666666666667
149,1719.4971415,51584.914245,51584,1719.4666666666667,1720.0590587499998,51601.77176249999,51601,1720.0333333333333,1721.586235,51647.58705,51647,1721.5666666666666,0.38632597879040986,1,0,4,2,1,1,b'NB_12_frameB_foil.png',1721.9725609787904,51659.176829363714,51659,1721.9666666666667
150,1721.989148,51659.674439999995,51659,1721.9666666666667,1722.59116025,51677.734807500005,51677,1722.5666666666666,1724.11832175,51723.5496525,51723,1724.1,1.7466798247769475,3,1,2,2,2,3,b'HB_7_frameA.png',1725.865001574777,51775.95004724331,51775,1725.8333333333333
151,1725.8895275,51776.685825,51776,1725.8666666666666,1726.45135775,51793.5407325,51793,1726.4333333333334,1728.0195115,51840.585345,51840,1728.0,1.0337062686448917,3,1,2,2,2,3,b'HB_7_frameB.png',1729.0532177686448,51871.596533059346,51871,1729.0333333333333
152,1729.0690425,51872.071275,51872,1729.0666666666666,1729.67106425,51890.1319275,51890,1729.6666666666667,1731.1984475,51935.953425,51935,1731.1666666666667,1.5228310567326844,2,0,2,2,1,3,b'SB_2_frameB_foil.png',1732.7212785567326,51981.63835670198,51981,1732.7
153,1732.72893775,51981.8681325,51981,1732.7,1733.2506915,51997.520744999994,51997,1733.2333333333333,1734.7780497499998,52043.341492499996,52043,1734.7666666666667,1.5807908766437322,3,1,2,2,2,3,b'HB_2_frameA.png',1736.3588406266435,52090.76521879931,52090,1736.3333333333333
154,1736.3743997499998,52091.2319925,52091,1736.3666666666666,1736.976387,52109.29161,52109,1736.9666666666667,1738.5236874999998,52155.71062499999,52155,1738.5,-0.8501289590494707,1,1,3,2,2,2,b'NB_7_frameB.png',1737.6735585409504,52130.20675622851,52130,1737.6666666666667
155,1737.69612525,52130.8837575,52130,1737.6666666666667,1738.2179422499999,52146.53826749999,52146,1738.2,1739.765253,52192.95759,52192,1739.7333333333333,1.2587407246464863,1,0,3,2,1,2,b'NB_23_frameA_foil.png',1741.0239937246465,52230.71981173939,52230,1741.0
156,1741.0424827499999,52231.2744825,52231,1741.0333333333333,1741.624451,52248.73353,52248,1741.6,1743.17228275,52295.1684825,52295,1743.1666666666667,1.2992492464836687,2,0,2,2,1,3,b'SB_2_frameA_foil.png',1744.4715319964837,52334.14595989451,52334,1744.4666666666667
157,1744.4930797499999,52334.7923925,52334,1744.4666666666667,1745.0549724999998,52351.649175,52351,1745.0333333333333,1746.602302,52398.06906,52398,1746.6,1.635413103387691,1,1,3,2,2,2,b'NB_29_frameB.png',1748.2377151033877,52447.13145310163,52447,1748.2333333333333
158,1748.2624804999998,52447.87441499999,52447,1748.2333333333333,1748.8243667499999,52464.7310025,52464,1748.8,1750.35168175,52510.5504525,52510,1750.3333333333333,2.368024565745145,3,1,2,2,2,3,b'HB_4_frameA.png',1752.719706315745,52581.591189472354,52581,1752.7
159,1752.7365559999998,52582.096679999995,52582,1752.7333333333333,1753.2984625,52598.953875,52598,1753.2666666666667,1754.8256697499999,52644.770092499995,52644,1754.8,1.9817330662626773,3,1,2,2,2,3,b'HB_1_frameA.png',1756.8074028162625,52704.222084487876,52704,1756.8
160,1756.823429,52704.70287,52704,1756.8,1757.3251369999998,52719.754109999994,52719,1757.3,1758.8724295,52766.172885,52766,1758.8666666666666,0.0,3,1,1,0,1,0,b'HB_2_frameA.png',1758.8724295,52766.172885,52766,1758.8666666666666
161,1760.59788925,52817.9366775,52817,1760.5666666666666,1761.1197035,52833.591105,52833,1761.1,1762.666976,52880.00928,52880,1762.6666666666667,2.7279685821849853,1,1,3,2,2,2,b'NB_10_frameA.png',1765.394944582185,52961.84833746555,52961,1765.3666666666666
162,1765.4188589999999,52962.565769999994,52962,1765.4,1765.9807395,52979.422185,52979,1765.9666666666667,1767.50794925,53025.238477499995,53025,1767.5,1.8305446928134188,3,1,2,2,2,3,b'HB_5_frameB.png',1769.3384939428133,53080.1548182844,53080,1769.3333333333333
163,1769.3462487499999,53080.387462499995,53080,1769.3333333333333,1769.867982,53096.03946,53096,1769.8666666666666,1771.4158499999999,53142.47549999999,53142,1771.4,2.0155263771303,3,0,2,2,1,3,b'HB_5_frameB_foil.png',1773.4313763771302,53202.9412913139,53202,1773.4
164,1773.454487,53203.63461,53203,1773.4333333333334,1774.0364565,53221.093695,53221,1774.0333333333333,1775.583729,53267.51187,53267,1775.5666666666666,1.5617093341425061,3,1,2,2,2,3,b'HB_6_frameB.png',1777.1454383341425,53314.36315002428,53314,1777.1333333333334
165,1777.151639,53314.54917,53314,1777.1333333333334,1777.7335827499999,53332.0074825,53332,1777.7333333333333,1779.26117675,53377.8353025,53377,1779.2333333333333,1.4440151309827343,3,0,5,1,2,1,b'HB_6_frameB_foil.png',1780.7051918809827,53421.155756429485,53421,1780.7
166,1780.7147585,53421.442755000004,53421,1780.7,1781.33688575,53440.1065725,53440,1781.3333333333333,1782.887863,53486.63589,53486,1782.8666666666666,1.3796636572806165,3,1,3,2,2,2,b'HB_3_frameB.png',1784.2675266572805,53528.025799718416,53528,1784.2666666666667
167,1784.28249525,53528.4748575,53528,1784.2666666666667,1784.824347,53544.73041,53544,1784.8,1786.3519299999998,53590.55789999999,53590,1786.3333333333333,1.1984802533406764,1,0,3,2,1,2,b'NB_14_frameB_foil.png',1787.5504102533405,53626.51230760021,53626,1787.5333333333333
168,1787.57268475,53627.1805425,53627,1787.5666666666666,1788.1554465,53644.663394999996,53644,1788.1333333333334,1789.68254725,53690.4764175,53690,1789.6666666666667,1.4629076990531757,2,0,5,1,2,1,b'SB_1_frameA_foil.png',1791.1454549490531,53734.3636484716,53734,1791.1333333333334
169,1791.15367125,53734.6101375,53734,1791.1333333333334,1791.71555,53751.466499999995,53751,1791.7,1793.2427727499999,53797.283182499996,53797,1793.2333333333333,1.023134314105846,2,1,2,2,2,3,b'SB_3_frameA.png',1794.2659070641057,53827.97721192317,53827,1794.2333333333333
170,1794.2774077499998,53828.322232499995,53828,1794.2666666666667,1794.8591554999998,53845.774665,53845,1794.8333333333333,1796.38668975,53891.6006925,53891,1796.3666666666666,1.2933875232702121,2,1,2,2,2,3,b'SB_4_frameA.png',1797.6800772732702,53930.4023181981,53930,1797.6666666666667
171,1797.6870924999998,53930.612774999994,53930,1797.6666666666667,1798.2691257499998,53948.07377249999,53948,1798.2666666666667,1799.81636525,53994.4909575,53994,1799.8,1.549670087522827,3,0,2,2,1,3,b'HB_2_frameB_foil.png',1801.3660353375228,54040.98106012568,54040,1801.3333333333333
172,1801.37960275,54041.3880825,54041,1801.3666666666666,1801.9414977499998,54058.2449325,54058,1801.9333333333334,1803.46885525,54104.065657499996,54104,1803.4666666666667,1.1829160959459841,2,0,6,1,2,2,b'SB_6_frameA_foil.png',1804.651771345946,54139.553140378375,54139,1804.6333333333334
173,1804.6567565,54139.702695,54139,1804.6333333333334,1805.1987325,54155.961975,54155,1805.1666666666667,1806.7460469999999,54202.381409999995,54202,1806.7333333333333,1.3944442479405552,3,0,2,2,1,3,b'HB_2_frameB_foil.png',1808.1404912479404,54244.21473743821,54244,1808.1333333333334
174,1808.15739725,54244.7219175,54244,1808.1333333333334,1808.7190592499999,54261.571777499994,54261,1808.7,1810.246678,54307.40034,54307,1810.2333333333333,1.1848126326221973,3,1,2,2,2,3,b'HB_5_frameA.png',1811.4314906326222,54342.944718978666,54342,1811.4
175,1811.4399832499998,54343.1994975,54343,1811.4333333333334,1812.00189,54360.0567,54360,1812.0,1813.5492414999999,54406.477244999995,54406,1813.5333333333333,1.534526240080595,2,0,2,2,1,3,b'SB_1_frameB_foil.png',1815.0837677400805,54452.51303220241,54452,1815.0666666666666
176,1815.091927,54452.757809999996,54452,1815.0666666666666,1815.653828,54469.61484,54469,1815.6333333333334,1817.20100575,54516.030172499995,54516,1817.2,1.5007207978051156,1,0,3,2,1,2,b'NB_17_frameA_foil.png',1818.701726547805,54561.05179643415,54561,1818.7
177,1818.7662902499999,54562.98870749999,54562,1818.7333333333333,1819.3582325,54580.746975,54580,1819.3333333333333,1820.8690092499999,54626.070277499995,54626,1820.8666666666666,1.3906079872976989,2,1,4,2,2,1,b'SB_30_frameA.png',1822.2596172372976,54667.78851711893,54667,1822.2333333333333
178,1822.31675475,54669.502642499996,54669,1822.3,1822.8855792499999,54686.567377499996,54686,1822.8666666666666,1824.4343505,54733.030515,54733,1824.4333333333334,1.8596499068662524,2,0,3,2,1,2,b'SB_30_frameB_foil.png',1826.2940004068662,54788.820012205986,54788,1826.2666666666667
179,1826.3625009999998,54790.875029999996,54790,1826.3333333333333,1826.928488,54807.85464,54807,1826.9,1828.4557845,54853.673534999994,54853,1828.4333333333334,1.119561601197347,3,1,4,2,2,1,b'HB_30_frameB.png',1829.5753461011973,54887.260383035915,54887,1829.5666666666666
180,1829.58564675,54887.5694025,54887,1829.5666666666666,1830.180705,54905.42115,54905,1830.1666666666667,1831.69799425,54950.9398275,54950,1831.6666666666667,1.7255996721796691,3,0,4,2,1,1,b'HB_30_frameA_foil.png',1833.4235939221796,55002.70781766539,55002,1833.4
