trial_num,fixcross_time,fixation_HZ,fixation_bin,fixation_regarded,start_time,Fstart_HZ,Fstart_bin,Fstart_regarded,stop_time,Fstop_HZ,Fstop_bin,Fstop_regarded,RT,boundary_type,stimuli_type,resp_value,old_new,accuracy,confidence,frameName,response_time,response_HZ,response_bin,response_regarded
1,1157.8760929999999,34736.28279,34736,1157.8666666666666,1158.4179212499998,34752.5376375,34752,1158.4,1159.99751175,34799.9253525,34799,1159.9666666666667,2.8055086997774197,2,1,3,2,2,2,b'SB_2_frameB.png',1162.8030204497775,34884.090613493325,34884,1162.8
2,1162.855629,34885.668869999994,34885,1162.8333333333333,1163.4578132499998,34903.7343975,34903,1163.4333333333334,1164.9867705,34949.603115,34949,1164.9666666666667,1.6162327191850636,2,0,6,1,2,2,b'SB_2_frameB_foil.png',1166.603003219185,34998.09009657555,34998,1166.6
3,1166.636791,34999.103729999995,34999,1166.6333333333334,1167.138297,35014.148909999996,35014,1167.1333333333334,1168.666588,35059.99764,35059,1168.6333333333334,-1.020184243490803,3,1,3,2,2,2,b'HB_5_frameB.png',1167.6464037565092,35029.39211269528,35029,1167.6333333333334
4,1167.67035825,35030.110747499995,35030,1167.6666666666667,1168.2319352499999,35046.9580575,35046,1168.2,1169.7825942499999,35093.4778275,35093,1169.7666666666667,2.6117266581131844,1,1,3,2,2,2,b'NB_15_frameB.png',1172.394320908113,35171.829627243394,35171,1172.3666666666666
5,1172.4178375,35172.535124999995,35172,1172.4,1172.93943975,35188.1831925,35188,1172.9333333333334,1174.46740275,35234.0220825,35234,1174.4666666666667,1.1265338328812504,2,1,3,2,2,2,b'SB_1_frameA.png',1175.5939365828813,35267.81809748644,35267,1175.5666666666666
6,1175.6225829999998,35268.677489999995,35268,1175.6,1176.16441225,35284.9323675,35284,1176.1333333333334,1177.71161975,35331.3485925,35331,1177.7,2.132672510051634,2,1,3,2,2,2,b'SB_2_frameB.png',1179.8442922600516,35395.32876780155,35395,1179.8333333333333
7,1179.8498077499999,35395.494232499994,35395,1179.8333333333333,1180.3720385,35411.161154999994,35411,1180.3666666666666,1181.91930175,35457.5790525,35457,1181.9,1.6446573549765162,2,0,6,1,2,2,b'SB_2_frameA_foil.png',1183.5639591049764,35506.91877314929,35506,1183.5333333333333
8,1183.583977,35507.51931,35507,1183.5666666666666,1184.08565875,35522.5697625,35522,1184.0666666666666,1185.6128465,35568.385395,35568,1185.6,1.2889338032982778,3,1,3,2,2,2,b'HB_1_frameB.png',1186.9017803032982,35607.053409098946,35607,1186.9
9,1186.92053625,35607.6160875,35607,1186.9,1187.482503,35624.47509,35624,1187.4666666666667,1189.0098584999998,35670.29575499999,35670,1189.0,2.4013130004314007,3,1,3,2,2,2,b'HB_1_frameB.png',1191.4111715004312,35742.335145012934,35742,1191.4
10,1191.417262,35742.51786,35742,1191.4,1191.939009,35758.170269999995,35758,1191.9333333333334,1193.46632775,35803.989832499996,35803,1193.4333333333334,1.4736502573650796,2,1,3,2,2,2,b'SB_1_frameB.png',1194.939978007365,35848.19934022095,35848,1194.9333333333334
11,1194.95384475,35848.615342499994,35848,1194.9333333333334,1195.53579575,35866.0738725,35866,1195.5333333333333,1197.06338775,35911.9016325,35911,1197.0333333333333,0.6067703918233747,3,0,6,1,2,2,b'HB_1_frameB_foil.png',1197.6701581418233,35930.1047442547,35930,1197.6666666666667
12,1197.676194,35930.28582,35930,1197.6666666666667,1198.218025,35946.54075,35946,1198.2,1199.76527425,35992.9582275,35992,1199.7333333333333,3.0544065483263694,1,0,6,1,2,2,b'NB_19_frameA_foil.png',1202.8196807983263,36084.59042394979,36084,1202.8
13,1202.83626675,36085.0880025,36085,1202.8333333333333,1203.4382385,36103.147155,36103,1203.4333333333334,1204.9656889999999,36148.970669999995,36148,1204.9333333333334,1.946357832479407,2,0,6,1,2,2,b'SB_4_frameB_foil.png',1206.9120468324793,36207.36140497438,36207,1206.9
14,1206.9240674999999,36207.722024999995,36207,1206.9,1207.42567775,36222.7703325,36222,1207.4,1208.95298975,36268.5896925,36268,1208.9333333333334,2.299677312548738,3,1,3,2,2,2,b'HB_1_frameA.png',1211.2526670625487,36337.58001187646,36337,1211.2333333333333
15,1211.27602775,36338.2808325,36338,1211.2666666666667,1211.79770225,36353.9310675,36353,1211.7666666666667,1213.3249785,36399.749355,36399,1213.3,0.8881509871862363,1,0,6,1,2,2,b'NB_11_frameA_foil.png',1214.2131294871863,36426.39388461559,36426,1214.2
16,1214.2245042499999,36426.7351275,36426,1214.2,1214.7463455,36442.390365,36442,1214.7333333333333,1216.27423,36488.2269,36488,1216.2666666666667,0.2082417845085729,3,1,3,2,2,2,b'HB_3_frameA.png',1216.4824717845086,36494.47415353526,36494,1216.4666666666667
17,1216.5017807499999,36495.053422499994,36495,1216.5,1217.063669,36511.91007,36511,1217.0333333333333,1218.5909004999999,36557.727015,36557,1218.5666666666666,1.5040158988413168,3,1,3,2,2,2,b'HB_4_frameB.png',1220.0949163988412,36602.847491965236,36602,1220.0666666666666
18,1220.10276925,36603.0830775,36603,1220.1,1220.7047625,36621.142875,36621,1220.7,1222.2519499999999,36667.5585,36667,1222.2333333333333,0.6626241920312168,1,0,6,1,2,2,b'NB_29_frameA_foil.png',1222.914574192031,36687.437225760936,36687,1222.9
19,1222.93591,36688.0773,36688,1222.9333333333334,1223.518069,36705.542069999996,36705,1223.5,1225.06544775,36751.9634325,36751,1225.0333333333333,3.1301149738574168,3,1,3,2,2,2,b'HB_9_frameB.png',1228.1955627238574,36845.86688171572,36845,1228.1666666666667
20,1228.211227,36846.33681,36846,1228.2,1228.7331195,36861.993585,36861,1228.7,1230.26104325,36907.8312975,36907,1230.2333333333333,1.8188872845639708,3,1,3,2,2,2,b'HB_1_frameA.png',1232.079930534564,36962.39791603692,36962,1232.0666666666666
21,1232.09354625,36962.8063875,36962,1232.0666666666666,1232.6353824999999,36979.061474999995,36979,1232.6333333333334,1234.1832765,37025.498295,37025,1234.1666666666667,1.6037989773321897,1,0,6,1,2,2,b'NB_15_frameA_foil.png',1235.787075477332,37073.61226431996,37073,1235.7666666666667
22,1235.80746525,37074.2239575,37074,1235.8,1236.329285,37089.87855,37089,1236.3,1237.856612,37135.69836,37135,1237.8333333333333,1.1487050019204617,2,1,3,2,2,2,b'SB_2_frameA.png',1239.0053170019205,37170.159510057616,37170,1239.0
23,1239.0303932499999,37170.9117975,37170,1239.0,1239.5320797499999,37185.9623925,37185,1239.5,1241.0592662499998,37231.7779875,37231,1241.0333333333333,1.7511359965719748,1,1,3,2,2,2,b'NB_8_frameA.png',1242.8104022465718,37284.31206739716,37284,1242.8
24,1242.8279969999999,37284.839909999995,37284,1242.8,1243.36968975,37301.090692499994,37301,1243.3666666666666,1244.9169789999999,37347.50936999999,37347,1244.9,3.307655320299091,2,1,3,2,2,2,b'SB_5_frameA.png',1248.224634320299,37446.739029608965,37446,1248.2
25,1248.2494992499999,37447.4849775,37447,1248.2333333333333,1248.8113825,37464.341475,37464,1248.8,1250.3385865,37510.157595,37510,1250.3333333333333,2.805335491342703,3,1,3,2,2,2,b'HB_5_frameA.png',1253.1439219913427,37594.31765974028,37594,1253.1333333333334
26,1253.16416025,37594.9248075,37594,1253.1333333333334,1253.7459382499999,37612.3781475,37612,1253.7333333333333,1255.2941085,37658.823255,37658,1255.2666666666667,1.9437144711700967,1,1,3,2,2,2,b'NB_16_frameA.png',1257.23782297117,37717.134689135106,37717,1257.2333333333333
27,1257.24538625,37717.361587499996,37717,1257.2333333333333,1257.84740175,37735.4220525,37735,1257.8333333333333,1259.395188,37781.85564,37781,1259.3666666666666,1.627450064974255,2,0,6,1,2,2,b'SB_3_frameA_foil.png',1261.0226380649742,37830.67914194923,37830,1261.0
28,1261.03198425,37830.9595275,37830,1261.0,1261.61392925,37848.4178775,37848,1261.6,1263.16109825,37894.8329475,37894,1263.1333333333334,1.177980682303314,1,1,3,2,2,2,b'NB_18_frameA.png',1264.3390789323032,37930.1723679691,37930,1264.3333333333333
29,1264.3484469999999,37930.453409999995,37930,1264.3333333333333,1264.93039275,37947.9117825,37947,1264.9,1266.4776327499999,37994.328982499996,37994,1266.4666666666667,1.368642977642594,1,0,6,1,2,2,b'NB_4_frameB_foil.png',1267.8462757276425,38035.38827182927,38035,1267.8333333333333
30,1267.8646195,38035.938584999996,38035,1267.8333333333333,1268.44661425,38053.398427500004,38053,1268.4333333333334,1269.99451525,38099.8354575,38099,1269.9666666666667,1.4667502925440203,3,1,3,2,2,2,b'HB_4_frameA.png',1271.461265542544,38143.83796627632,38143,1271.4333333333334
31,1271.486107,38144.58321,38144,1271.4666666666667,1272.08813925,38162.6441775,38162,1272.0666666666666,1273.61553675,38208.4661025,38208,1273.6,2.21663710125722,2,0,6,1,2,2,b'SB_1_frameA_foil.png',1275.8321738512573,38274.96521553772,38274,1275.8
32,1275.8485245,38275.455734999996,38275,1275.8333333333333,1276.41040125,38292.3120375,38292,1276.4,1277.9577,38338.731,38338,1277.9333333333334,1.297390747742611,1,0,6,1,2,2,b'NB_14_frameB_foil.png',1279.2550907477425,38377.65272243228,38377,1279.2333333333333
33,1279.27336775,38378.2010325,38378,1279.2666666666667,1279.7955745,38393.867235,38393,1279.7666666666667,1281.3226685,38439.680055,38439,1281.3,2.391690330056008,2,1,3,2,2,2,b'SB_6_frameB.png',1283.714358830056,38511.43076490168,38511,1283.7
34,1283.733215,38511.99645,38511,1283.7,1284.2951269999999,38528.85380999999,38528,1284.2666666666667,1285.822345,38574.67035,38574,1285.8,0.6159730143554043,3,1,3,2,2,2,b'HB_8_frameB.png',1286.4383180143554,38593.14954043066,38593,1286.4333333333334
35,1286.46275575,38593.8826725,38593,1286.4333333333334,1286.984401,38609.532029999995,38609,1286.9666666666667,1288.5119742499999,38655.3592275,38655,1288.5,0.21550142457999755,1,0,6,1,2,2,b'NB_22_frameB_foil.png',1288.7274756745799,38661.8242702374,38661,1288.7
36,1288.7344987499998,38662.034962499994,38662,1288.7333333333333,1289.256076,38677.68227999999,38677,1289.2333333333333,1290.8041672499999,38724.125017499995,38724,1290.8,0.7678494485007832,2,0,6,1,2,2,b'SB_1_frameB_foil.png',1291.5720166985006,38747.16050095502,38747,1291.5666666666666
37,1291.58041375,38747.412412499994,38747,1291.5666666666666,1292.1623499999998,38764.8705,38764,1292.1333333333334,1293.7096454999999,38811.289365,38811,1293.7,2.77101290099381,2,1,3,2,2,2,b'SB_7_frameA.png',1296.4806584009937,38894.41975202981,38894,1296.4666666666667
38,1296.5048175,38895.144524999996,38895,1296.5,1297.1066965,38913.200895,38913,1297.1,1298.6540317499998,38959.620952499994,38959,1298.6333333333334,0.9630550922738621,1,0,6,1,2,2,b'NB_17_frameA_foil.png',1299.6170868422737,38988.51260526821,38988,1299.6
39,1299.63568425,38989.0705275,38989,1299.6333333333334,1300.1975875,39005.927625000004,39005,1300.1666666666667,1301.7248104999999,39051.744314999996,39051,1301.7,2.365080967938411,2,0,6,1,2,2,b'SB_1_frameA_foil.png',1304.0898914679383,39122.69674403815,39122,1304.0666666666666
40,1304.10279175,39123.0837525,39123,1304.1,1304.704784,39141.14352,39141,1304.7,1306.23195725,39186.958717500005,39186,1306.2,0.9233072007045848,2,0,6,1,2,2,b'SB_8_frameB_foil.png',1307.1552644507046,39214.65793352114,39214,1307.1333333333334
41,1307.175835,39215.27505,39215,1307.1666666666667,1307.7577945,39232.733835,39232,1307.7333333333333,1309.305036,39279.151079999996,39279,1309.3,1.8076107658125693,2,1,3,2,2,2,b'SB_9_frameA.png',1311.1126467658125,39333.37940297437,39333,1311.1
42,1311.13499325,39334.049797499996,39334,1311.1333333333334,1311.6968795,39350.906385,39350,1311.6666666666667,1313.244176,39397.32528,39397,1313.2333333333333,1.9778139942063717,3,0,6,1,2,2,b'HB_4_frameB_foil.png',1315.2219899942063,39456.65969982619,39456,1315.2
43,1315.2287287499998,39456.861862499994,39456,1315.2,1315.7707245,39473.121735,39473,1315.7666666666667,1317.318263,39519.547889999994,39519,1317.3,1.5418062526878202,1,0,6,1,2,2,b'NB_1_frameA_foil.png',1318.8600692526877,39565.80207758063,39565,1318.8333333333333
44,1318.87437325,39566.2311975,39566,1318.8666666666666,1319.39608375,39581.8825125,39581,1319.3666666666666,1320.923867,39627.71601,39627,1320.9,1.2275571010395652,1,0,6,1,2,2,b'NB_3_frameA_foil.png',1322.1514241010395,39664.54272303118,39664,1322.1333333333334
45,1322.15683825,39664.7051475,39664,1322.1333333333334,1322.6987434999999,39680.962304999994,39680,1322.6666666666667,1324.225954,39726.77862,39726,1324.2,1.453244559263112,3,0,6,1,2,2,b'HB_1_frameA_foil.png',1325.679198559263,39770.37595677789,39770,1325.6666666666667
46,1325.6940527499999,39770.82158249999,39770,1325.6666666666667,1326.2159152499999,39786.4774575,39786,1326.2,1327.743123,39832.29369,39832,1327.7333333333333,0.7837250594457146,2,1,3,2,2,2,b'SB_3_frameB.png',1328.5268480594457,39855.80544178337,39855,1328.5
47,1328.5396524999999,39856.189575,39856,1328.5333333333333,1329.0619267499999,39871.857802499995,39871,1329.0333333333333,1330.58906,39917.671800000004,39917,1330.5666666666666,2.569408921612194,2,1,3,2,2,2,b'SB_6_frameA.png',1333.1584689216122,39994.75406764837,39994,1333.1333333333334
48,1333.1647535,39994.942605,39994,1333.1333333333334,1333.686886,40010.60658,40010,1333.6666666666667,1335.214131,40056.42393,40056,1335.2,2.04574578764732,1,1,3,2,2,2,b'NB_1_frameB.png',1337.2598767876473,40117.79630362942,40117,1337.2333333333333
49,1337.27909,40118.3727,40118,1337.2666666666667,1337.8209574999998,40134.628724999995,40134,1337.8,1339.3483935,40180.451805,40180,1339.3333333333333,3.821824543614639,3,0,6,1,2,2,b'HB_4_frameA_foil.png',1343.1702180436146,40295.106541308436,40295,1343.1666666666667
50,1343.1943099999999,40295.8293,40295,1343.1666666666667,1343.77622875,40313.2868625,40313,1343.7666666666667,1345.30377175,40359.113152499995,40359,1345.3,1.884185815404635,1,0,6,1,2,2,b'NB_13_frameA_foil.png',1347.1879575654045,40415.638726962134,40415,1347.1666666666667
51,1347.21258375,40416.3775125,40416,1347.2,1347.7742445,40433.227334999996,40433,1347.7666666666667,1349.3022832499998,40479.0684975,40479,1349.3,1.522863347970997,2,0,6,1,2,2,b'SB_5_frameB_foil.png',1350.8251465979708,40524.75439793913,40524,1350.8
52,1350.83236975,40524.971092499996,40524,1350.8,1351.4143225,40542.429675,40542,1351.4,1352.9622035,40588.866105,40588,1352.9333333333334,1.692560411625891,1,0,6,1,2,2,b'NB_18_frameB_foil.png',1354.6547639116259,40639.64291734878,40639,1354.6333333333334
53,1354.6743314999999,40640.229945,40640,1354.6666666666667,1355.21613475,40656.4840425,40656,1355.2,1356.7637949999998,40702.91385,40702,1356.7333333333333,2.302433479373576,2,0,6,1,2,2,b'SB_5_frameA_foil.png',1359.0662284793734,40771.986854381204,40771,1359.0333333333333
54,1359.07699125,40772.3097375,40772,1359.0666666666666,1359.578524,40787.35572,40787,1359.5666666666666,1361.125988,40833.77964,40833,1361.1,0.4570812676975038,3,0,6,1,2,2,b'HB_7_frameB_foil.png',1361.5830692676975,40847.492078030926,40847,1361.5666666666666
55,1361.5923592499998,40847.770777499994,40847,1361.5666666666666,1362.11460075,40863.4380225,40863,1362.1,1363.64180025,40909.2540075,40909,1363.6333333333334,1.5049159874906763,3,0,6,1,2,2,b'HB_8_frameA_foil.png',1365.1467162374906,40954.40148712472,40954,1365.1333333333334
56,1365.1614587499998,40954.84376249999,40954,1365.1333333333334,1365.7037395,40971.112185,40971,1365.7,1367.2309377499998,41016.9281325,41016,1367.2,-0.2753972186037572,3,1,3,2,2,2,b'HB_2_frameB.png',1366.955540531396,41008.666215941885,41008,1366.9333333333334
57,1366.97618575,41009.2855725,41009,1366.9666666666667,1367.558169,41026.74507,41026,1367.5333333333333,1369.1061177499998,41073.18353249999,41073,1369.1,3.247916700463975,3,0,6,1,2,2,b'HB_7_frameA_foil.png',1372.3540344504638,41170.62103351391,41170,1372.3333333333333
58,1372.3692717499998,41171.07815249999,41171,1372.3666666666666,1372.95122575,41188.5367725,41188,1372.9333333333334,1374.49841475,41234.9524425,41234,1374.4666666666667,2.1453612791374326,3,1,3,2,2,2,b'HB_6_frameB.png',1376.6437760291374,41299.31328087412,41299,1376.6333333333334
59,1376.6675155,41300.025465,41300,1376.6666666666667,1377.26953475,41318.0860425,41318,1377.2666666666667,1378.8167165,41364.501495,41364,1378.8,1.5943372948822798,2,0,6,1,2,2,b'SB_2_frameA_foil.png',1380.4110537948823,41412.331613846465,41412,1380.4
60,1380.4236445,41412.709335,41412,1380.4,1381.005611,41430.16833,41430,1381.0,1382.5334705,41476.004115,41476,1382.5333333333333,3.0084911613957956,3,0,6,1,2,2,b'HB_3_frameB_foil.png',1385.5419616613958,41566.25884984188,41566,1385.5333333333333
61,1385.5579512499999,41566.738537499994,41566,1385.5333333333333,1386.16015425,41584.8046275,41584,1386.1333333333334,1387.68730425,41630.619127499995,41630,1387.6666666666667,1.1031397127080709,3,0,6,1,2,2,b'HB_9_frameB_foil.png',1388.790443962708,41663.71331888124,41663,1388.7666666666667
62,1388.8081955,41664.245865,41664,1388.8,1389.35002175,41680.5006525,41680,1389.3333333333333,1390.89725525,41726.9176575,41726,1390.8666666666666,1.7681616053014295,2,0,6,1,2,2,b'SB_7_frameB_foil.png',1392.6654168553014,41779.962505659045,41779,1392.6333333333334
63,1392.689856,41780.69568,41780,1392.6666666666667,1393.21161225,41796.348367499995,41796,1393.2,1394.7591475,41842.774424999996,41842,1394.7333333333333,1.9016366389259929,1,0,6,1,2,2,b'NB_6_frameB_foil.png',1396.660784138926,41899.823524167776,41899,1396.6333333333334
64,1396.6676575,41900.029725,41900,1396.6666666666667,1397.189333,41915.679990000004,41915,1397.1666666666667,1398.7165364999998,41961.496094999995,41961,1398.7,1.9057978629425634,3,1,3,2,2,2,b'HB_1_frameB.png',1400.6223343629424,42018.67003088827,42018,1400.6
65,1400.6309147499999,42018.9274425,42018,1400.6,1401.1929612499998,42035.7888375,42035,1401.1666666666667,1402.7409225,42082.227674999995,42082,1402.7333333333333,2.8349938787869178,1,1,3,2,2,2,b'NB_11_frameB.png',1405.5759163787868,42167.2774913636,42167,1405.5666666666666
66,1405.59551475,42167.8654425,42167,1405.5666666666666,1406.11724775,42183.5174325,42183,1406.1,1407.64502075,42229.3506225,42229,1407.6333333333334,2.8764677332364954,3,1,3,2,2,2,b'HB_3_frameA.png',1410.5214884832365,42315.6446544971,42315,1410.5
67,1410.541358,42316.24074,42316,1410.5333333333333,1411.0427917499999,42331.2837525,42331,1411.0333333333333,1412.5909252499998,42377.7277575,42377,1412.5666666666666,1.1335147811914794,2,0,6,1,2,2,b'SB_4_frameA_foil.png',1413.7244400311913,42411.73320093574,42411,1413.7
68,1413.7322155,42411.966465,42411,1413.7,1414.334237,42430.02711,42430,1414.3333333333333,1415.8813969999999,42476.441909999994,42476,1415.8666666666666,1.0574129353335593,3,0,6,1,2,2,b'HB_2_frameB_foil.png',1416.9388099353334,42508.16429806,42508,1416.9333333333334
69,1416.95357875,42508.6073625,42508,1416.9333333333334,1417.4754779999998,42524.264339999994,42524,1417.4666666666667,1419.0025262499998,42570.0757875,42570,1419.0,2.041304876373033,3,1,3,2,2,2,b'HB_9_frameA.png',1421.0438311263729,42631.31493379119,42631,1421.0333333333333
70,1421.049786,42631.49358,42631,1421.0333333333333,1421.59172875,42647.751862499994,42647,1421.5666666666666,1423.13887675,42694.1663025,42694,1423.1333333333334,1.3341550588374957,1,1,3,2,2,2,b'NB_26_frameA.png',1424.4730318088375,42734.19095426513,42734,1424.4666666666667
71,1424.477936,42734.33808,42734,1424.4666666666667,1425.04000875,42751.2002625,42751,1425.0333333333333,1426.56720475,42797.0161425,42797,1426.5666666666666,1.162720849388279,2,1,3,2,2,2,b'SB_3_frameA.png',1427.7299255993883,42831.897767981645,42831,1427.7
72,1427.7438365,42832.315095,42832,1427.7333333333333,1428.326286,42849.78858,42849,1428.3,1429.85354375,42895.6063125,42895,1429.8333333333333,-0.21146661184320692,3,1,3,2,2,2,b'HB_7_frameB.png',1429.6420771381568,42889.262314144704,42889,1429.6333333333334
73,1429.65039875,42889.5119625,42889,1429.6333333333334,1430.1920882499999,42905.7626475,42905,1430.1666666666667,1431.7425449999998,42952.27634999999,42952,1431.7333333333333,1.0576201100484468,3,1,3,2,2,2,b'HB_3_frameB.png',1432.8001651100483,42984.004953301446,42984,1432.8
74,1432.8144505,42984.433515,42984,1432.8,1433.3360519999999,43000.08156,43000,1433.3333333333333,1434.883605,43046.50815,43046,1434.8666666666666,1.3884613055852242,2,0,6,1,2,2,b'SB_5_frameB_foil.png',1436.2720663055852,43088.16198916756,43088,1436.2666666666667
75,1436.29571475,43088.8714425,43088,1436.2666666666667,1436.8576309999999,43105.72893,43105,1436.8333333333333,1438.4056269999999,43152.168809999996,43152,1438.4,3.564603826889652,2,0,6,1,2,2,b'SB_7_frameA_foil.png',1441.9702308268895,43259.106924806685,43259,1441.9666666666667
76,1441.9788919999999,43259.36676,43259,1441.9666666666667,1442.500944,43275.02832,43275,1442.5,1444.048351,43321.450529999995,43321,1444.0333333333333,1.255633899141685,3,0,6,1,2,2,b'HB_4_frameA_foil.png',1445.3039848991416,43359.119546974245,43359,1445.3
77,1445.3291195,43359.873585,43359,1445.3,1445.8506869999999,43375.52061,43375,1445.8333333333333,1447.37868675,43421.360602500004,43421,1447.3666666666666,2.269818768618279,2,1,3,2,2,2,b'SB_4_frameB.png',1449.6485055186183,43489.45516555855,43489,1449.6333333333334
78,1449.6720415,43490.161244999996,43490,1449.6666666666667,1450.1737867499999,43505.21360249999,43505,1450.1666666666667,1451.7009305,43551.027915,43551,1451.7,3.2311554030748084,1,0,6,1,2,2,b'NB_10_frameB_foil.png',1454.9320859030747,43647.96257709224,43647,1454.9
79,1454.944753,43648.34259,43648,1454.9333333333334,1455.52674575,43665.802372499995,43665,1455.5,1457.0740544999999,43712.221634999994,43712,1457.0666666666666,2.0127262117603095,2,0,6,1,2,2,b'SB_1_frameB_foil.png',1459.0867807117602,43772.603421352804,43772,1459.0666666666666
80,1459.1019105,43773.057315,43773,1459.1,1459.68387925,43790.516377500004,43790,1459.6666666666667,1461.21108375,43836.3325125,43836,1461.2,2.002690542838536,2,0,6,1,2,2,b'SB_3_frameB_foil.png',1463.2137742928385,43896.41322878515,43896,1463.2
81,1463.22808975,43896.8426925,43896,1463.2,1463.7500545,43912.501635,43912,1463.7333333333333,1465.2773842499998,43958.3215275,43958,1465.2666666666667,2.7068575809244066,1,1,3,2,2,2,b'NB_4_frameA.png',1467.9842418309242,44039.52725492773,44039,1467.9666666666667
82,1467.9956272499999,44039.8688175,44039,1467.9666666666667,1468.5375215,44056.125645,44056,1468.5333333333333,1470.06464025,44101.9392075,44101,1470.0333333333333,2.3209281056915643,1,0,6,1,2,2,b'NB_27_frameA_foil.png',1472.3855683556915,44171.56705067075,44171,1472.3666666666666
83,1472.4037967499999,44172.113902499994,44172,1472.4,1472.965739,44188.97217,44188,1472.9333333333334,1474.49287225,44234.786167499995,44234,1474.4666666666667,0.21690468258748297,1,0,6,1,2,2,b'NB_9_frameA_foil.png',1474.7097769325874,44241.29330797762,44241,1474.7
84,1474.7202295,44241.606885,44241,1474.7,1475.30202975,44259.0608925,44259,1475.3,1476.8300525,44304.901574999996,44304,1476.8,3.5418675071414327,2,0,6,1,2,2,b'SB_6_frameA_foil.png',1480.3719200071414,44411.15760021424,44411,1480.3666666666666
85,1480.38759225,44411.627767499995,44411,1480.3666666666666,1480.9095335,44427.286005,44427,1480.9,1482.4371717499998,44473.115152499995,44473,1482.4333333333334,1.1304181596788112,1,0,6,1,2,2,b'NB_23_frameA_foil.png',1483.5675899096786,44507.02769729036,44507,1483.5666666666666
86,1483.580097,44507.402910000004,44507,1483.5666666666666,1484.1419975,44524.259925,44524,1484.1333333333334,1485.6693599999999,44570.080799999996,44570,1485.6666666666667,0.6409093392285286,1,1,3,2,2,2,b'NB_19_frameB.png',1486.3102693392284,44589.30808017685,44589,1486.3
87,1486.3231965,44589.695895,44589,1486.3,1486.9250255,44607.750765,44607,1486.9,1488.45241225,44653.5723675,44653,1488.4333333333334,0.5934812544146553,3,0,6,1,2,2,b'HB_6_frameA_foil.png',1489.0458935044146,44671.37680513244,44671,1489.0333333333333
88,1489.069019,44672.07057,44672,1489.0666666666666,1489.57064775,44687.1194325,44687,1489.5666666666666,1491.1184815,44733.554444999994,44733,1491.1,1.9257668484642636,2,1,3,2,2,2,b'SB_2_frameA.png',1493.0442483484642,44791.32745045392,44791,1493.0333333333333
89,1493.0546689999999,44791.640069999994,44791,1493.0333333333333,1493.5964609999999,44807.89382999999,44807,1493.5666666666666,1495.14371325,44854.3113975,44854,1495.1333333333334,1.6295106956677046,1,1,3,2,2,2,b'NB_27_frameB.png',1496.7732239456677,44903.19671837003,44903,1496.7666666666667
90,1496.79096125,44903.7288375,44903,1496.7666666666667,1497.35288675,44920.5866025,44920,1497.3333333333333,1498.880238,44966.407139999996,44966,1498.8666666666666,-0.40690227640152443,3,0,6,1,2,2,b'HB_3_frameB_foil.png',1498.4733357235984,44954.20007170795,44954,1498.4666666666667
91,1498.49329675,44954.7989025,44954,1498.4666666666667,1499.0149562499998,44970.44868749999,44970,1499.0,1500.5628414999999,45016.885245,45016,1500.5333333333333,2.0904167823318858,2,0,6,1,2,2,b'SB_6_frameA_foil.png',1502.6532582823318,45079.597748469954,45079,1502.6333333333334
92,1502.6595077499999,45079.7852325,45079,1502.6333333333334,1503.2414892499999,45097.2446775,45097,1503.2333333333333,1504.78861325,45143.6583975,45143,1504.7666666666667,1.7200468086521141,3,1,3,2,2,2,b'HB_4_frameB.png',1506.5086600586521,45195.25980175957,45195,1506.5
93,1506.51641475,45195.4924425,45195,1506.5,1507.11855275,45213.5565825,45213,1507.1,1508.64638025,45259.3914075,45259,1508.6333333333334,0.809314803685993,1,0,6,1,2,2,b'NB_20_frameB_foil.png',1509.455695053686,45283.67085161058,45283,1509.4333333333334
94,1509.4738312499999,45284.21493749999,45284,1509.4666666666667,1510.03576875,45301.0730625,45301,1510.0333333333333,1511.58297425,45347.4892275,45347,1511.5666666666666,1.211718212463893,1,0,6,1,2,2,b'NB_2_frameB_foil.png',1512.794692462464,45383.84077387392,45383,1512.7666666666667
95,1512.810497,45384.31491,45384,1512.8,1513.3321947499999,45399.965842499994,45399,1513.3,1514.87946425,45446.3839275,45446,1514.8666666666666,1.6659985890582902,3,1,3,2,2,2,b'HB_8_frameB.png',1516.5454628390582,45496.36388517175,45496,1516.5333333333333
96,1516.55534975,45496.6604925,45496,1516.5333333333333,1517.15736275,45514.7208825,45514,1517.1333333333334,1518.6846765,45560.540295,45560,1518.6666666666667,2.102022981736809,3,1,3,2,2,2,b'HB_2_frameA.png',1520.7866994817368,45623.6009844521,45623,1520.7666666666667
97,1520.7959127499998,45623.877382499995,45623,1520.7666666666667,1521.39791625,45641.9374875,45641,1521.3666666666666,1522.9252725,45687.758174999995,45687,1522.9,1.0342152870580321,2,1,3,2,2,2,b'SB_3_frameA.png',1523.959487787058,45718.784633611736,45718,1523.9333333333334
98,1523.9781965,45719.345895,45719,1523.9666666666667,1524.5402,45736.206,45736,1524.5333333333333,1526.0880949999998,45782.64285,45782,1526.0666666666666,2.496789726181305,3,1,3,2,2,2,b'HB_2_frameA.png',1528.5848847261811,45857.546541785436,45857,1528.5666666666666
99,1528.6060969999999,45858.182909999996,45858,1528.6,1529.16798025,45875.0394075,45875,1529.1666666666667,1530.69513225,45920.8539675,45920,1530.6666666666667,0.3944236827082932,3,0,6,1,2,2,b'HB_2_frameB_foil.png',1531.0895559327082,45932.68667798125,45932,1531.0666666666666
100,1531.10608175,45933.1824525,45933,1531.1,1531.6880895,45950.642685,45950,1531.6666666666667,1533.23582375,45997.0747125,45997,1533.2333333333333,1.6911888917238684,3,1,6,1,1,2,b'HB_1_frameB.png',1534.9270126417239,46047.810379251714,46047,1534.9
101,1534.9495955,46048.487865,46048,1534.9333333333334,1535.511479,46065.34437,46065,1535.5,1537.0386919999999,46111.16076,46111,1537.0333333333333,1.5574201906274538,3,0,7,1,2,3,b'HB_5_frameA_foil.png',1538.5961121906273,46157.88336571882,46157,1538.5666666666666
102,1538.612645,46158.379349999996,46158,1538.6,1539.2146125,46176.438375,46176,1539.2,1540.7419082499998,46222.2572475,46222,1540.7333333333333,2.75804540446552,3,1,7,1,1,3,b'HB_7_frameA.png',1543.4999536544653,46304.99860963396,46304,1543.4666666666667
103,1543.50694725,46305.2084175,46305,1543.5,1544.0688324999999,46322.064974999994,46322,1544.0666666666666,1545.5959874999999,46367.879624999994,46367,1545.5666666666666,2.4468501276132884,3,1,7,1,1,3,b'HB_5_frameA.png',1548.0428376276132,46441.28512882839,46441,1548.0333333333333
104,1548.05275625,46441.5826875,46441,1548.0333333333333,1548.59462575,46457.8387725,46457,1548.5666666666666,1550.14180075,46504.2540225,46504,1550.1333333333334,0.4978661705972627,3,0,2,2,1,3,b'HB_9_frameA_foil.png',1550.6396669205972,46519.190007617915,46519,1550.6333333333334
105,1550.6648464999998,46519.945394999995,46519,1550.6333333333334,1551.2468059999999,46537.40418,46537,1551.2333333333333,1552.774616,46583.23848,46583,1552.7666666666667,-0.6784484932868509,3,1,7,1,1,3,b'HB_6_frameA.png',1552.096167506713,46562.885025201394,46562,1552.0666666666666
106,1552.10619275,46563.1857825,46563,1552.1,1552.60785025,46578.2355075,46578,1552.6,1554.1351235,46624.053705,46624,1554.1333333333334,1.529438214856782,2,0,6,1,2,2,b'SB_6_frameB_foil.png',1555.6645617148567,46669.9368514457,46669,1555.6333333333334
107,1555.6858889999999,46670.576669999995,46670,1555.6666666666667,1556.26783375,46688.0350125,46688,1556.2666666666667,1557.7952437499998,46733.8573125,46733,1557.7666666666667,0.6807196264271624,2,1,3,2,2,2,b'SB_1_frameB.png',1558.475963376427,46754.27890129281,46754,1558.4666666666667
108,1558.4938547499999,46754.8156425,46754,1558.4666666666667,1559.0557195,46771.671585,46771,1559.0333333333333,1560.60360875,46818.1082625,46818,1560.6,2.4596380569855683,1,1,3,2,2,2,b'NB_21_frameB.png',1563.0632468069855,46891.897404209565,46891,1563.0333333333333
109,1563.08667025,46892.6001075,46892,1563.0666666666666,1563.6485934999998,46909.457805,46909,1563.6333333333334,1565.176371,46955.29113,46955,1565.1666666666667,0.46592474504723214,3,0,7,1,2,3,b'HB_2_frameB_foil.png',1565.6422957450472,46969.268872351415,46969,1565.6333333333334
110,1565.66124225,46969.8372675,46969,1565.6333333333334,1566.223067,46986.69201,46986,1566.2,1567.7504784999999,47032.514355,47032,1567.7333333333333,0.6987911408068612,1,0,6,1,2,2,b'NB_16_frameB_foil.png',1568.4492696408067,47053.478089224205,47053,1568.4333333333334
111,1568.4592747499998,47053.7782425,47053,1568.4333333333334,1569.001069,47070.03207,47070,1569.0,1570.5289189999999,47115.867569999995,47115,1570.5,1.9994867498025997,2,0,6,1,2,2,b'SB_2_frameB_foil.png',1572.5284057498025,47175.85217249407,47175,1572.5
112,1572.5510937499998,47176.532812499994,47176,1572.5333333333333,1573.0728287499999,47192.1848625,47192,1573.0666666666666,1574.6000769999998,47238.002309999996,47238,1574.6,0.9876563948346302,2,1,6,1,1,2,b'SB_8_frameB.png',1575.5877333948345,47267.632001845035,47267,1575.5666666666666
113,1575.6108367499999,47268.3251025,47268,1575.6,1576.19262775,47285.7788325,47285,1576.1666666666667,1577.71997975,47331.5993925,47331,1577.7,0.2963912172272103,1,0,6,1,2,2,b'NB_25_frameA_foil.png',1578.0163709672272,47340.49112901682,47340,1578.0
114,1578.0386852499998,47341.16055749999,47341,1578.0333333333333,1578.5406,47356.218,47356,1578.5333333333333,1580.08781925,47402.6345775,47402,1580.0666666666666,1.0115455263730837,1,1,6,1,1,2,b'NB_5_frameB.png',1581.099364776373,47432.98094329119,47432,1581.0666666666666
115,1581.12410575,47433.723172499995,47433,1581.1,1581.6258205,47448.774614999995,47448,1581.6,1583.153008,47494.59024,47494,1583.1333333333334,2.681333739485126,2,1,7,1,1,3,b'SB_5_frameA.png',1585.8343417394851,47575.03025218455,47575,1585.8333333333333
116,1585.85059925,47575.5179775,47575,1585.8333333333333,1586.45264,47593.5792,47593,1586.4333333333334,1587.9998469999998,47639.995409999996,47639,1587.9666666666667,1.3312243829132058,1,1,6,1,1,2,b'NB_3_frameB.png',1589.331071382913,47679.93214148739,47679,1589.3
117,1589.355851,47680.67553,47680,1589.3333333333333,1589.9578749999998,47698.736249999994,47698,1589.9333333333334,1591.485628,47744.56884,47744,1591.4666666666667,1.9430199254566105,1,1,7,1,1,3,b'NB_12_frameA.png',1593.4286479254565,47802.8594377637,47802,1593.4
118,1593.4447225,47803.341674999996,47803,1593.4333333333334,1593.9465962499999,47818.397887499996,47818,1593.9333333333334,1595.47441775,47864.2325325,47864,1595.4666666666667,2.359994533137069,2,0,7,1,2,3,b'SB_1_frameB_foil.png',1597.834412283137,47935.03236849411,47935,1597.8333333333333
119,1597.85314425,47935.5943275,47935,1597.8333333333333,1598.3748847499999,47951.2465425,47951,1598.3666666666666,1599.90204425,47997.0613275,47997,1599.9,1.5749191825307207,1,0,2,2,1,3,b'NB_28_frameB_foil.png',1601.4769634325307,48044.30890297592,48044,1601.4666666666667
120,1601.48403425,48044.5210275,48044,1601.4666666666667,1601.98587925,48059.576377499994,48059,1601.9666666666667,1603.53355225,48106.0065675,48106,1603.5333333333333,2.5200725850154413,3,1,2,2,2,3,b'HB_2_frameA.png',1606.0536248350154,48181.608745050464,48181,1606.0333333333333
121,1606.06797725,48182.0393175,48182,1606.0666666666666,1606.5697392499999,48197.092177499995,48197,1606.5666666666666,1608.1169145,48243.507435,48243,1608.1,1.268733997407253,1,1,2,2,2,3,b'NB_20_frameA.png',1609.3856484974071,48281.56945492222,48281,1609.3666666666666
122,1609.40870225,48282.2610675,48282,1609.4,1609.9304849999999,48297.914549999994,48297,1609.9,1611.4776909999998,48344.330729999994,48344,1611.4666666666667,1.6506550515041454,1,1,2,2,2,3,b'NB_9_frameB.png',1613.128346051504,48393.85038154512,48393,1613.1
123,1613.1519125,48394.557375,48394,1613.1333333333334,1613.673721,48410.21163,48410,1613.6666666666667,1615.2210435,48456.631304999995,48456,1615.2,0.7573793303017737,1,1,7,1,1,3,b'NB_7_frameB.png',1615.9784228303017,48479.35268490905,48479,1615.9666666666667
124,1615.9914099999999,48479.7423,48479,1615.9666666666667,1616.5332045,48495.996135,48495,1616.5,1618.0804162499999,48542.4124875,48542,1618.0666666666666,1.693876790406648,1,0,2,2,1,3,b'NB_7_frameA_foil.png',1619.7742930404065,48593.2287912122,48593,1619.7666666666667
125,1619.7827452499998,48593.4823575,48593,1619.7666666666667,1620.3446255,48610.33876499999,48610,1620.3333333333333,1621.8724144999999,48656.17243499999,48656,1621.8666666666666,1.3835786528215976,3,0,2,2,1,3,b'HB_6_frameB_foil.png',1623.2559931528215,48697.67979458464,48697,1623.2333333333333
126,1623.2737957499999,48698.2138725,48698,1623.2666666666667,1623.87581675,48716.274502500004,48716,1623.8666666666666,1625.40303275,48762.0909825,48762,1625.4,1.4898245935473824,2,1,7,1,1,3,b'SB_1_frameA.png',1626.8928573435473,48806.78572030642,48806,1626.8666666666666
127,1626.90805175,48807.241552499996,48807,1626.9,1627.4298875,48822.896625,48822,1627.4,1628.95707325,48868.7121975,48868,1628.9333333333334,1.2470292301295558,2,1,7,1,1,3,b'SB_9_frameB.png',1630.2041024801294,48906.123074403884,48906,1630.2
128,1630.2170194999999,48906.510584999996,48906,1630.2,1630.8191339999998,48924.57401999999,48924,1630.8,1632.36635725,48970.9907175,48970,1632.3333333333333,2.1725632179004606,1,1,7,1,1,3,b'NB_13_frameB.png',1634.5389204679004,49036.16761403701,49036,1634.5333333333333
129,1634.54980175,49036.4940525,49036,1634.5333333333333,1635.051262,49051.53786,49051,1635.0333333333333,1636.578695,49097.36085,49097,1636.5666666666666,0.4006417121272534,2,1,2,2,2,3,b'SB_1_frameB.png',1636.9793367121272,49109.380101363815,49109,1636.9666666666667
130,1636.9948499999998,49109.845499999996,49109,1636.9666666666667,1637.5366764999999,49126.100295,49126,1637.5333333333333,1639.064961,49171.94883,49171,1639.0333333333333,1.159617909041117,3,0,7,1,2,3,b'HB_1_frameA_foil.png',1640.2245789090412,49206.737367271235,49206,1640.2
131,1640.2459932499999,49207.3797975,49207,1640.2333333333333,1640.7677294999999,49223.031885,49223,1640.7666666666667,1642.2949872499998,49268.8496175,49268,1642.2666666666667,2.2532665783073753,2,0,7,1,2,3,b'SB_4_frameA_foil.png',1644.5482538283072,49336.44761484922,49336,1644.5333333333333
132,1644.5694227499998,49337.0826825,49337,1644.5666666666666,1645.0911824999998,49352.735474999994,49352,1645.0666666666666,1646.6184469999998,49398.55340999999,49398,1646.6,2.259502597429673,2,0,2,2,1,3,b'SB_3_frameB_foil.png',1648.8779495974295,49466.33848792288,49466,1648.8666666666666
133,1648.8932619999998,49466.79785999999,49466,1648.8666666666666,1649.495197,49484.85591,49484,1649.4666666666667,1651.0424375,49531.273125,49531,1651.0333333333333,1.4621120102528948,2,1,7,1,1,3,b'SB_8_frameA.png',1652.504549510253,49575.13648530759,49575,1652.5
134,1652.5243785,49575.731355,49575,1652.5,1653.10634525,49593.1903575,49593,1653.1,1654.6541854999998,49639.625564999995,49639,1654.6333333333334,3.2968251535785384,2,0,7,1,2,3,b'SB_2_frameB_foil.png',1657.9510106535784,49738.53031960735,49738,1657.9333333333334
135,1657.961329,49738.839869999996,49738,1657.9333333333334,1658.52321775,49755.6965325,49755,1658.5,1660.0504677499998,49801.514032499996,49801,1660.0333333333333,2.0397208818030776,2,1,2,2,2,3,b'SB_6_frameB.png',1662.090188631803,49862.70565895409,49862,1662.0666666666666
136,1662.1127609999999,49863.382829999995,49863,1662.1,1662.61451675,49878.4355025,49878,1662.6,1664.16245225,49924.8735675,49924,1664.1333333333334,1.4848213141958695,1,0,7,1,2,3,b'NB_5_frameA_foil.png',1665.6472735641958,49969.418206925875,49969,1665.6333333333334
137,1665.6537185,49969.611554999996,49969,1665.6333333333334,1666.2355665,49987.066995,49987,1666.2333333333333,1667.7628667499998,50032.886002499996,50032,1667.7333333333333,2.269471990686725,1,1,2,2,2,3,b'NB_28_frameA.png',1670.0323387406866,50100.9701622206,50100,1670.0
138,1670.04642575,50101.3927725,50101,1670.0333333333333,1670.5481197499998,50116.44359249999,50116,1670.5333333333333,1672.095294,50162.85882,50162,1672.0666666666666,2.0462155051063746,2,1,7,1,1,3,b'SB_1_frameA.png',1674.1415095051063,50224.24528515319,50224,1674.1333333333334
139,1674.162269,50224.86807,50224,1674.1333333333334,1674.7441944999998,50242.325834999996,50242,1674.7333333333333,1676.2915297499999,50288.745892499996,50288,1676.2666666666667,1.281568113481626,1,0,7,1,2,3,b'NB_12_frameB_foil.png',1677.5730978634815,50327.192935904444,50327,1677.5666666666666
140,1677.58305725,50327.4917175,50327,1677.5666666666666,1678.1248755,50343.746264999994,50343,1678.1,1679.65273475,50389.5820425,50389,1679.6333333333334,1.5642505691794213,2,0,7,1,2,3,b'SB_9_frameB_foil.png',1681.2169853191795,50436.50955957538,50436,1681.2
141,1681.2332345,50436.997035,50436,1681.2,1681.77505625,50453.2516875,50453,1681.7666666666667,1683.3224102499998,50499.6723075,50499,1683.3,0.5972251819330268,3,0,7,1,2,3,b'HB_5_frameB_foil.png',1683.9196354319329,50517.58906295799,50517,1683.9
142,1683.93610875,50518.0832625,50518,1683.9333333333334,1684.4375109999999,50533.125329999995,50533,1684.4333333333334,1685.9850032499999,50579.550097499996,50579,1685.9666666666667,2.184973792376695,2,0,2,2,1,3,b'SB_8_frameA_foil.png',1688.1699770423766,50645.0993112713,50645,1688.1666666666667
143,1688.1856905,50645.570715,50645,1688.1666666666667,1688.68721525,50660.6164575,50660,1688.6666666666667,1690.23460075,50707.0380225,50707,1690.2333333333333,2.161628656889661,1,1,7,1,1,3,b'NB_30_frameA.png',1692.3962294068897,50771.88688220669,50771,1692.3666666666666
144,1692.4089454999998,50772.268364999996,50772,1692.4,1692.99089725,50789.7269175,50789,1692.9666666666667,1694.51807425,50835.542227499995,50835,1694.5,0.6790348933718633,3,0,2,2,1,3,b'HB_2_frameB_foil.png',1695.1971091433718,50855.91327430115,50855,1695.1666666666667
145,1695.20437225,50856.1311675,50856,1695.2,1695.72606075,50871.7818225,50871,1695.7,1697.2533314999998,50917.599944999994,50917,1697.2333333333333,0.0,3,1,1,0,1,0,b'HB_2_frameA.png',1697.2533314999998,50917.599944999994,50917,1697.2333333333333
146,1699.19050675,50975.715202499996,50975,1699.1666666666667,1699.71199,50991.3597,50991,1699.7,1701.2393455,51037.180365,51037,1701.2333333333333,0.6221868806023849,1,1,7,1,1,3,b'NB_22_frameA.png',1701.8615323806023,51055.84597141807,51055,1701.8333333333333
147,1701.87777575,51056.3332725,51056,1701.8666666666666,1702.3994619999999,51071.98385999999,51071,1702.3666666666666,1703.9272875,51117.818625,51117,1703.9,2.2567987175425515,3,0,2,2,1,3,b'HB_3_frameA_foil.png',1706.1840862175425,51185.52258652628,51185,1706.1666666666667
148,1706.195281,51185.85843,51185,1706.1666666666667,1706.7772189999998,51203.316569999995,51203,1706.7666666666667,1708.305017,51249.15051,51249,1708.3,0.9265276663354598,2,1,7,1,1,3,b'SB_5_frameB.png',1709.2315446663354,51276.94633999006,51276,1709.2
149,1709.2501499999998,51277.504499999995,51277,1709.2333333333333,1709.7919895,51293.759685,51293,1709.7666666666667,1711.3192769999998,51339.57831,51339,1711.3,1.527443430517451,1,1,7,1,1,3,b'NB_25_frameB.png',1712.8467204305173,51385.40161291552,51385,1712.8333333333333
150,1712.85701675,51385.7105025,51385,1712.8333333333333,1713.39864375,51401.9593125,51401,1713.3666666666666,1714.94616125,51448.384837499994,51448,1714.9333333333334,1.4648158338677604,2,0,7,1,2,3,b'SB_9_frameA_foil.png',1716.4109770838677,51492.32931251603,51492,1716.4
151,1716.43181225,51492.954367499995,51492,1716.4,1717.033841,51511.01523,51511,1717.0333333333333,1718.5609365,51556.828095000004,51556,1718.5333333333333,0.7163674828771036,2,1,7,1,1,3,b'SB_7_frameB.png',1719.2773039828771,51578.31911948632,51578,1719.2666666666667
152,1719.290076,51578.70228,51578,1719.2666666666667,1719.89205675,51596.7617025,51596,1719.8666666666666,1721.4192982499999,51642.5789475,51642,1721.4,1.8687507686263416,1,1,2,2,2,3,b'NB_24_frameA.png',1723.2880490186262,51698.64147055879,51698,1723.2666666666667
153,1723.296335,51698.89005,51698,1723.2666666666667,1723.85812025,51715.7436075,51715,1723.8333333333333,1725.38535525,51761.5606575,51761,1725.3666666666666,1.9696503109444166,3,0,7,1,2,3,b'HB_8_frameA_foil.png',1727.3550055609444,51820.65016682833,51820,1727.3333333333333
154,1727.37378975,51821.2136925,51821,1727.3666666666666,1727.8955692499999,51836.8670775,51836,1727.8666666666666,1729.44299375,51883.2898125,51883,1729.4333333333334,0.816055661678547,1,1,2,2,2,3,b'NB_29_frameB.png',1730.2590494116785,51907.771482350356,51907,1730.2333333333333
155,1730.2784815,51908.354445,51908,1730.2666666666667,1730.82034675,51924.6104025,51924,1730.8,1732.3474669999998,51970.424009999995,51970,1732.3333333333333,0.5372311042738147,1,1,7,1,1,3,b'NB_17_frameB.png',1732.8846981042736,51986.54094312821,51986,1732.8666666666666
156,1732.895818,51986.87454,51986,1732.8666666666666,1733.4173832499998,52002.5214975,52002,1733.4,1734.9447464999998,52048.34239499999,52048,1734.9333333333334,1.5973460569657618,3,1,7,1,1,3,b'HB_6_frameA.png',1736.5420925569656,52096.262776708965,52096,1736.5333333333333
157,1736.55939775,52096.7819325,52096,1736.5333333333333,1737.0611784999999,52111.835354999996,52111,1737.0333333333333,1738.5883502499998,52157.650507499995,52157,1738.5666666666666,0.519846715615131,2,1,2,2,2,3,b'SB_2_frameA.png',1739.108196965615,52173.24590896845,52173,1739.1
158,1739.1286002499999,52173.8580075,52173,1739.1,1739.6704097499999,52190.112292499995,52190,1739.6666666666667,1741.1975565,52235.926695,52235,1741.1666666666667,0.014962652960093692,2,1,7,1,1,3,b'SB_4_frameA.png',1741.21251915296,52236.375574588805,52236,1741.2
159,1741.2307792499998,52236.923377499996,52236,1741.2,1741.83283125,52254.9849375,52254,1741.8,1743.36006125,52300.801837499996,52300,1743.3333333333333,1.1133307306008646,1,0,7,1,2,3,b'NB_26_frameB_foil.png',1744.4733919806008,52334.20175941802,52334,1744.4666666666667
160,1744.4784109999998,52334.352329999994,52334,1744.4666666666667,1744.9802419999999,52349.40725999999,52349,1744.9666666666667,1746.52745725,52395.8237175,52395,1746.5,1.3294670626200968,1,0,7,1,2,3,b'NB_24_frameB_foil.png',1747.85692431262,52435.707729378606,52435,1747.8333333333333
161,1747.8746542499998,52436.23962749999,52436,1747.8666666666666,1748.4164954999999,52452.49486499999,52452,1748.4,1749.9636377499999,52498.9091325,52498,1749.9333333333334,2.725501321387128,3,0,7,1,2,3,b'HB_1_frameA_foil.png',1752.689139071387,52580.67417214161,52580,1752.6666666666667
162,1752.71317525,52581.3952575,52581,1752.7,1753.2951874999999,52598.855625,52598,1753.2666666666667,1754.8223644999998,52644.670934999995,52644,1754.8,2.380872727444512,1,1,2,2,2,3,b'NB_2_frameA.png',1757.2032372274443,52716.09711682333,52716,1757.2
163,1757.2220982499998,52716.66294749999,52716,1757.2,1757.743833,52732.31499,52732,1757.7333333333333,1759.270978,52778.12934,52778,1759.2666666666667,0.8436389900452923,1,0,7,1,2,3,b'NB_30_frameB_foil.png',1760.1146169900453,52803.43850970136,52803,1760.1
164,1760.13094925,52803.9284775,52803,1760.1,1760.7329714999998,52821.98914499999,52821,1760.7,1762.26070025,52867.821007499995,52867,1762.2333333333333,2.177459407816059,1,1,2,2,2,3,b'NB_14_frameA.png',1764.438159657816,52933.14478973448,52933,1764.4333333333334
165,1764.4430005,52933.290015,52933,1764.4333333333334,1765.00493425,52950.1480275,52950,1765.0,1766.5533719999999,52996.60116,52996,1766.5333333333333,2.868633282123483,2,1,7,1,1,3,b'SB_4_frameB.png',1769.4220052821233,53082.6601584637,53082,1769.4
166,1769.44271725,53083.2815175,53083,1769.4333333333334,1770.02468575,53100.7405725,53100,1770.0,1771.5525579999999,53146.57674,53146,1771.5333333333333,1.329263455059845,1,1,7,1,1,3,b'NB_23_frameB.png',1772.8818214550597,53186.45464365179,53186,1772.8666666666666
167,1772.89422675,53186.8268025,53186,1772.8666666666666,1773.4762835,53204.288505,53204,1773.4666666666667,1775.0040037499998,53250.12011249999,53250,1775.0,-0.14672403484291863,2,0,5,1,2,1,b'SB_1_frameA_foil.png',1774.857279715157,53245.718391454706,53245,1774.8333333333333
168,1774.88353375,53246.5060125,53246,1774.8666666666666,1775.4454065,53263.362195,53263,1775.4333333333334,1776.9731299999999,53309.1939,53309,1776.9666666666667,1.0950947239034576,1,1,2,2,2,3,b'NB_6_frameA.png',1778.0682247239033,53342.0467417171,53342,1778.0666666666666
169,1778.0889264999998,53342.667794999994,53342,1778.0666666666666,1778.63096925,53358.9290775,53358,1778.6,1780.1781382499998,53405.34414749999,53405,1780.1666666666667,1.2696005518519087,1,1,7,1,1,3,b'NB_10_frameA.png',1781.4477388018518,53443.43216405555,53443,1781.4333333333334
170,1781.46493075,53443.947922499996,53443,1781.4333333333334,1781.98667875,53459.6003625,53459,1781.9666666666667,1783.51431725,53505.4295175,53505,1783.5,2.8879913480050163,1,0,2,2,1,3,b'NB_21_frameA_foil.png',1786.402308598005,53592.06925794015,53592,1786.4
171,1786.41904925,53592.5714775,53592,1786.4,1786.9406482499999,53608.2194475,53608,1786.9333333333334,1788.4887442499999,53654.662327499995,53654,1788.4666666666667,1.1862204421777278,3,0,7,1,2,3,b'HB_5_frameB_foil.png',1789.6749646921776,53690.24894076533,53690,1789.6666666666667
172,1789.6996984999998,53690.990954999994,53690,1789.6666666666667,1790.3017249999998,53709.05174999999,53709,1790.3,1791.8495982499999,53755.4879475,53755,1791.8333333333333,1.3734232563583646,3,0,2,2,1,3,b'HB_1_frameB_foil.png',1793.2230215063582,53796.69064519075,53796,1793.2
173,1793.239271,53797.17813,53797,1793.2333333333333,1793.8212179999998,53814.63653999999,53814,1793.8,1795.3690855,53861.072565,53861,1795.3666666666666,1.097180565702729,1,0,7,1,2,3,b'NB_8_frameB_foil.png',1796.4662660657027,53893.987981971084,53893,1796.4333333333334
174,1796.4746349999998,53894.23905,53894,1796.4666666666667,1797.0363295,53911.089885,53911,1797.0333333333333,1798.5838454999998,53957.51536499999,53957,1798.5666666666666,0.27466050258954056,3,0,2,2,1,3,b'HB_6_frameB_foil.png',1798.8585060025894,53965.75518007768,53965,1798.8333333333333
175,1798.8646245,53965.938735,53965,1798.8333333333333,1799.4464047499998,53983.39214249999,53983,1799.4333333333334,1800.9938002499998,54029.8140075,54029,1800.9666666666667,1.620834395318525,3,0,2,2,1,3,b'HB_1_frameA_foil.png',1802.6146346453183,54078.43903935955,54078,1802.6
176,1802.6222885,54078.668655,54078,1802.6,1803.18417525,54095.5252575,54095,1803.1666666666667,1804.7113849999998,54141.34155,54141,1804.7,1.2237740736018168,3,0,7,1,2,3,b'HB_2_frameA_foil.png',1805.9351590736017,54178.05477220805,54178,1805.9333333333334
177,1806.014682,54180.44046,54180,1806.0,1806.57906725,54197.3720175,54197,1806.5666666666666,1808.1306164999999,54243.918495,54243,1808.1,3.5059713843511418,2,1,6,1,1,2,b'SB_30_frameA.png',1811.636587884351,54349.09763653053,54349,1811.6333333333334
178,1811.6921145,54350.76343499999,54350,1811.6666666666667,1812.2562982499999,54367.6889475,54367,1812.2333333333333,1813.7717329999998,54413.15198999999,54413,1813.7666666666667,2.18114597100066,2,0,7,1,2,3,b'SB_30_frameB_foil.png',1815.9528789710005,54478.58636913001,54478,1815.9333333333334
179,1816.01151925,54480.3455775,54480,1816.0,1816.5330995,54495.992985,54495,1816.5,1818.03408825,54541.0226475,54541,1818.0333333333333,0.22862680529942736,3,1,5,1,1,1,b'HB_30_frameB.png',1818.2627150552994,54547.881451658985,54547,1818.2333333333333
180,1818.32361625,54549.7084875,54549,1818.3,1818.8168927499999,54564.50678249999,54564,1818.8,1820.3285455,54609.856365,54609,1820.3,2.0253717005834915,3,0,4,2,1,1,b'HB_30_frameA_foil.png',1822.3539172005835,54670.617516017504,54670,1822.3333333333333
