trial_num,fixcross_time,fixation_HZ,fixation_bin,fixation_regarded,start_time,Fstart_HZ,Fstart_bin,Fstart_regarded,stop_time,Fstop_HZ,Fstop_bin,Fstop_regarded,RT,boundary_type,stimuli_type,resp_value,old_new,accuracy,confidence,frameName,response_time,response_HZ,response_bin,response_regarded
1,1274.00459075,38220.1377225,38220,1274.0,1274.5045854999998,38235.137565,38235,1274.5,1276.03983525,38281.195057499994,38281,1276.0333333333333,-1.162797262717504,3,0,5,1,2,1,b'HB_8_frameA_foil.png',1274.8770379872824,38246.31113961847,38246,1274.8666666666666
2,1274.8919772499999,38246.75931749999,38246,1274.8666666666666,1275.42523,38262.7569,38262,1275.4,1276.9588717499998,38308.76615249999,38308,1276.9333333333334,1.0233360849670134,3,0,5,1,2,1,b'HB_3_frameB_foil.png',1277.9822078349669,38339.466235049,38339,1277.9666666666667
3,1277.9983412499998,38339.950237499994,38339,1277.9666666666667,1278.48161375,38354.4484125,38354,1278.4666666666667,1280.0154217499999,38400.4626525,38400,1280.0,1.483330037968699,3,0,6,1,2,2,b'HB_1_frameA_foil.png',1281.4987517879686,38444.96255363906,38444,1281.4666666666667
4,1281.51490275,38445.447082499995,38445,1281.5,1282.0148165,38460.444495,38460,1282.0,1283.54859475,38506.4578425,38506,1283.5333333333333,1.6357272198074497,1,0,6,1,2,2,b'NB_25_frameA_foil.png',1285.1843219698073,38555.52965909422,38555,1285.1666666666667
5,1285.200598,38556.01794,38556,1285.2,1285.7339785,38572.019355,38572,1285.7333333333333,1287.26733475,38618.0200425,38618,1287.2666666666667,2.5494945204118267,2,0,6,1,2,2,b'SB_1_frameA_foil.png',1289.8168292704117,38694.504878112355,38694,1289.8
6,1289.833226,38694.99678,38694,1289.8,1290.38309675,38711.4929025,38711,1290.3666666666666,1291.917045,38757.51135,38757,1291.9,1.6811599677312188,2,0,7,1,2,3,b'SB_9_frameA_foil.png',1293.5982049677311,38807.94614903194,38807,1293.5666666666666
7,1293.61041875,38808.3125625,38808,1293.6,1294.1103322499998,38823.3099675,38823,1294.1,1295.64390925,38869.3172775,38869,1295.6333333333334,3.355690802622121,1,1,3,2,2,2,b'NB_18_frameA.png',1298.999600052622,38969.98800157866,38969,1298.9666666666667
8,1299.0071269999999,38970.213809999994,38970,1299.0,1299.5738055,38987.214165,38987,1299.5666666666666,1301.1075025,39033.225075,39033,1301.1,1.0351037966902368,1,1,3,2,2,2,b'NB_19_frameB.png',1302.1426062966902,39064.27818890071,39064,1302.1333333333334
9,1302.1601445,39064.80433499999,39064,1302.1333333333334,1302.65999075,39079.7997225,39079,1302.6333333333334,1304.19360175,39125.8080525,39125,1304.1666666666667,3.885142355924472,1,0,5,1,2,1,b'NB_16_frameB_foil.png',1308.0787441059244,39242.36232317773,39242,1308.0666666666666
10,1308.0944485,39242.833455,39242,1308.0666666666666,1308.61100375,39258.3301125,39258,1308.6,1310.1447094999999,39304.341284999995,39304,1310.1333333333334,4.1839275024831295,1,0,6,1,2,2,b'NB_23_frameA_foil.png',1314.328637002483,39429.85911007449,39429,1314.3
11,1314.3369075,39430.107225,39430,1314.3333333333333,1314.82014475,39444.6043425,39444,1314.8,1316.3538067499999,39490.61420249999,39490,1316.3333333333333,3.5653624868718907,2,1,2,2,2,3,b'SB_4_frameB.png',1319.9191692368718,39597.57507710615,39597,1319.9
12,1319.9350494999999,39598.051484999996,39598,1319.9333333333334,1320.43492625,39613.0477875,39613,1320.4333333333334,1321.96863825,39659.0591475,39659,1321.9666666666667,1.4621509314747527,2,1,2,2,2,3,b'SB_5_frameA.png',1323.4307891814747,39702.92367544424,39702,1323.4
13,1323.43461175,39703.0383525,39703,1323.4333333333334,1323.90130775,39717.0392325,39717,1323.9,1325.4350474999999,39763.051425,39763,1325.4333333333334,2.0748047434026375,1,0,6,1,2,2,b'NB_1_frameA_foil.png',1327.5098522434025,39825.29556730208,39825,1327.5
14,1327.51342125,39825.402637499996,39825,1327.5,1327.99667875,39839.9003625,39839,1327.9666666666667,1329.5302745,39885.908234999995,39885,1329.5,2.4570162002928555,3,0,6,1,2,2,b'HB_2_frameA_foil.png',1331.9872907002928,39959.61872100878,39959,1331.9666666666667
15,1331.992462,39959.77386,39959,1331.9666666666667,1332.475794,39974.27382,39974,1332.4666666666667,1334.00928725,40020.2786175,40020,1334.0,1.7448091246769764,2,1,2,2,2,3,b'SB_3_frameA.png',1335.754096374677,40072.62289124031,40072,1335.7333333333333
16,1335.75819075,40072.7457225,40072,1335.7333333333333,1336.2581249999998,40087.743749999994,40087,1336.2333333333333,1337.7917165,40133.751495,40133,1337.7666666666667,1.5170836012694053,3,1,3,2,2,2,b'HB_2_frameA.png',1339.3088001012693,40179.26400303808,40179,1339.3
17,1339.32674725,40179.802417499995,40179,1339.3,1339.85994025,40195.798207499996,40195,1339.8333333333333,1341.393634,40241.80902,40241,1341.3666666666666,-0.9731270673219115,3,1,4,2,2,1,b'HB_1_frameB.png',1340.420506932678,40212.61520798034,40212,1340.4
18,1340.433028,40212.99084,40212,1340.4,1340.91628375,40227.4885125,40227,1340.9,1342.4499617499998,40273.49885249999,40273,1342.4333333333334,2.6826775597292,2,0,7,1,2,3,b'SB_5_frameB_foil.png',1345.132639309729,40353.97917929187,40353,1345.1
19,1345.148859,40354.465769999995,40354,1345.1333333333334,1345.7153919999998,40371.46176,40371,1345.7,1347.2491945,40417.475835,40417,1347.2333333333333,0.3629856710904278,2,0,6,1,2,2,b'SB_9_frameB_foil.png',1347.6121801710904,40428.36540513271,40428,1347.6
20,1347.6207465,40428.622395,40428,1347.6,1348.120633,40443.61899,40443,1348.1,1349.6542765,40489.628294999995,40489,1349.6333333333334,2.5600403867429122,1,1,3,2,2,2,b'NB_10_frameA.png',1352.2143168867428,40566.42950660228,40566,1352.2
21,1352.223448,40566.70344,40566,1352.2,1352.7399712499998,40582.19913749999,40582,1352.7333333333333,1354.2737654999999,40628.212965,40628,1354.2666666666667,0.5329186308663338,1,0,6,1,2,2,b'NB_5_frameA_foil.png',1354.8066841308662,40644.20052392599,40644,1354.8
22,1354.821995,40644.659850000004,40644,1354.8,1355.35521425,40660.6564275,40660,1355.3333333333333,1356.88899025,40706.6697075,40706,1356.8666666666666,2.5892538614571095,3,0,5,1,2,1,b'HB_8_frameA_foil.png',1359.4782441114571,40784.34732334371,40784,1359.4666666666667
23,1359.4965902499998,40784.89770749999,40784,1359.4666666666667,1360.0132165,40800.396495,40800,1360.0,1361.5469429999998,40846.40828999999,40846,1361.5333333333333,1.690150111215189,1,0,6,1,2,2,b'NB_14_frameB_foil.png',1363.237093111215,40897.11279333645,40897,1363.2333333333333
24,1363.25153575,40897.546072499994,40897,1363.2333333333333,1363.78474125,40913.5422375,40913,1363.7666666666667,1365.3184925,40959.554775000004,40959,1365.3,3.9837090506916866,1,0,6,1,2,2,b'NB_15_frameA_foil.png',1369.3022015506917,41079.066046520755,41079,1369.3
25,1369.3056565,41079.169695,41079,1369.3,1369.78891825,41093.6675475,41093,1369.7666666666667,1371.3559727499999,41140.6791825,41140,1371.3333333333333,0.0,1,0,1,0,1,0,b'NB_10_frameB_foil.png',1371.3559727499999,41140.6791825,41140,1371.3333333333333
26,1373.5448565,41206.345694999996,41206,1373.5333333333333,1374.044735,41221.34205,41221,1374.0333333333333,1375.57844675,41267.3534025,41267,1375.5666666666666,0.0,3,1,1,0,1,0,b'HB_7_frameA.png',1375.57844675,41267.3534025,41267,1375.5666666666666
27,1376.128886,41283.86658,41283,1376.1,1376.6122552499999,41298.3676575,41298,1376.6,1378.14581175,41344.374352499995,41344,1378.1333333333334,0.0,3,1,1,0,1,0,b'HB_3_frameA.png',1378.14581175,41344.374352499995,41344,1378.1333333333334
28,1377.9464305,41338.392915,41338,1377.9333333333334,1378.42964175,41352.8892525,41352,1378.4,1379.9633032499999,41398.8990975,41398,1379.9333333333334,3.6595265160431154,3,0,6,1,2,2,b'HB_9_frameB_foil.png',1383.622829766043,41508.68489298129,41508,1383.6
29,1383.627563,41508.82689,41508,1383.6,1384.160862,41524.82586,41524,1384.1333333333334,1385.69440525,41570.8321575,41570,1385.6666666666667,1.6096236046287231,1,1,3,2,2,2,b'NB_28_frameA.png',1387.3040288546288,41619.12086563886,41619,1387.3
30,1387.3196795,41619.590384999996,41619,1387.3,1387.80299825,41634.0899475,41634,1387.8,1389.3364824999999,41680.094475,41680,1389.3333333333333,1.2081691321218386,2,1,2,2,2,3,b'SB_1_frameA.png',1390.5446516321217,41716.33954896365,41716,1390.5333333333333
31,1390.54988125,41716.4964375,41716,1390.5333333333333,1391.0665265,41731.995795,41731,1391.0333333333333,1392.6002187499998,41778.0065625,41778,1392.6,2.371255792619195,3,1,3,2,2,2,b'HB_2_frameA.png',1394.971474542619,41849.144236278575,41849,1394.9666666666667
32,1394.9894669999999,41849.68401,41849,1394.9666666666667,1395.5560357499999,41866.681072499996,41866,1395.5333333333333,1397.089724,41912.691719999995,41912,1397.0666666666666,2.1204563099890947,2,0,7,1,2,3,b'SB_4_frameB_foil.png',1399.210180309989,41976.30540929967,41976,1399.2
33,1399.2227532499999,41976.682597499996,41976,1399.2,1399.72261875,41991.678562500005,41991,1399.7,1401.256377,42037.691309999995,42037,1401.2333333333333,2.3089872249984182,2,0,7,1,2,3,b'SB_6_frameA_foil.png',1403.5653642249983,42106.96092674995,42106,1403.5333333333333
34,1403.57406225,42107.2218675,42107,1403.5666666666666,1404.0907215,42122.721645,42122,1404.0666666666666,1405.6244722499998,42168.73416749999,42168,1405.6,1.7412087645498104,3,1,3,2,2,2,b'HB_5_frameA.png',1407.3656810145496,42220.970430436486,42220,1407.3333333333333
35,1407.3725465,42221.176395,42221,1407.3666666666666,1407.93922725,42238.176817499996,42238,1407.9333333333334,1409.4727384999999,42284.182154999995,42284,1409.4666666666667,4.140134497371037,1,0,6,1,2,2,b'NB_19_frameA_foil.png',1413.612872997371,42408.386189921126,42408,1413.6
36,1413.6227,42408.681,42408,1413.6,1414.139297,42424.178909999995,42424,1414.1333333333334,1415.672994,42470.18982,42470,1415.6666666666667,1.9135950120980851,3,0,6,1,2,2,b'HB_3_frameB_foil.png',1417.586589012098,42527.59767036294,42527,1417.5666666666666
37,1417.5905105,42527.715315,42527,1417.5666666666666,1418.1237274999999,42543.711825,42543,1418.1,1419.65751725,42589.725517499995,42589,1419.6333333333334,1.2642077938071452,2,0,7,1,2,3,b'SB_7_frameB_foil.png',1420.921725043807,42627.65175131421,42627,1420.9
38,1420.9364484999999,42628.093454999995,42628,1420.9333333333334,1421.4196582499999,42642.589747499995,42642,1421.4,1422.9533305,42688.599915,42688,1422.9333333333334,1.253942092822399,1,1,3,2,2,2,b'NB_23_frameB.png',1424.2072725928224,42726.21817778467,42726,1424.2
39,1424.220863,42726.62589,42726,1424.2,1424.720717,42741.62151,42741,1424.7,1426.25455225,42787.6365675,42787,1426.2333333333333,1.7166559223551303,1,0,6,1,2,2,b'NB_18_frameB_foil.png',1427.971208172355,42839.13624517065,42839,1427.9666666666667
40,1427.98638125,42839.5914375,42839,1427.9666666666667,1428.50306575,42855.0919725,42855,1428.5,1430.03676825,42901.1030475,42901,1430.0333333333333,4.219769424642436,3,0,6,1,2,2,b'HB_1_frameA_foil.png',1434.2565376746425,43027.696130239274,43027,1434.2333333333333
41,1434.2725065,43028.175194999996,43028,1434.2666666666667,1434.8390909999998,43045.17272999999,43045,1434.8333333333333,1436.372785,43091.18355,43091,1436.3666666666666,1.7669107053079642,1,0,7,1,2,3,b'NB_24_frameB_foil.png',1438.139695705308,43144.19087115924,43144,1438.1333333333334
42,1438.157808,43144.73424,43144,1438.1333333333334,1438.6744175,43160.232525,43160,1438.6666666666667,1440.20815025,43206.2445075,43206,1440.2,3.720268591248896,1,0,7,1,2,3,b'NB_27_frameA_foil.png',1443.928418841249,43317.85256523747,43317,1443.9
43,1443.9419725,43318.259175,43318,1443.9333333333334,1444.4752139999998,43334.25642,43334,1444.4666666666667,1446.008773,43380.26319,43380,1446.0,2.154001294518821,2,0,7,1,2,3,b'SB_2_frameB_foil.png',1448.1627742945188,43444.88322883556,43444,1448.1333333333334
44,1448.17278475,43445.183542499995,43445,1448.1666666666667,1448.70599325,43461.17979749999,43461,1448.7,1450.23956825,43507.1870475,43507,1450.2333333333333,0.8807869529118761,3,1,3,2,2,2,b'HB_9_frameB.png',1451.120355202912,43533.61065608736,43533,1451.1
45,1451.12698675,43533.8096025,43533,1451.1,1451.610259,43548.30777,43548,1451.6,1453.14376325,43594.3128975,43594,1453.1333333333334,0.783251952205319,3,1,3,2,2,2,b'HB_3_frameA.png',1453.9270152022052,43617.81045606616,43617,1453.9
46,1453.93266725,43617.9800175,43617,1453.9,1454.46591,43633.9773,43633,1454.4333333333334,1455.99957475,43679.9872425,43679,1455.9666666666667,2.0985281954635866,2,1,2,2,2,3,b'SB_8_frameB.png',1458.0981029454636,43742.94308836391,43742,1458.0666666666666
47,1458.1136219999999,43743.408659999994,43743,1458.1,1458.66353575,43759.9060725,43759,1458.6333333333334,1460.19714325,43805.9142975,43805,1460.1666666666667,-0.8043057952309027,3,1,3,2,2,2,b'HB_8_frameB.png',1459.392837454769,43781.78512364307,43781,1459.3666666666666
48,1459.395675,43781.87025,43781,1459.3666666666666,1459.86224825,43795.8674475,43795,1459.8333333333333,1461.39593225,43841.8779675,43841,1461.3666666666666,3.310668585821986,3,0,6,1,2,2,b'HB_9_frameA_foil.png',1464.706600835822,43941.19802507466,43941,1464.7
49,1464.72118875,43941.6356625,43941,1464.7,1465.2877925,43958.633775,43958,1465.2666666666667,1466.8214094999998,44004.642284999994,44004,1466.8,2.0203722952865064,2,1,2,2,2,3,b'SB_3_frameB.png',1468.8417817952864,44065.25345385859,44065,1468.8333333333333
50,1468.8452295,44065.356885,44065,1468.8333333333333,1469.3951057499999,44081.85317249999,44081,1469.3666666666666,1470.9288004999999,44127.864015,44127,1470.9,2.6686537138884887,2,1,2,2,2,3,b'SB_3_frameA.png',1473.5974542138883,44207.923626416654,44207,1473.5666666666666
51,1473.6066147499998,44208.1984425,44208,1473.6,1474.1398582499999,44224.195747499994,44224,1474.1333333333334,1475.67341575,44270.2024725,44270,1475.6666666666667,2.4699755192850716,3,1,3,2,2,2,b'HB_6_frameB.png',1478.143391269285,44344.30173807855,44344,1478.1333333333334
52,1478.1477694999999,44344.433085,44344,1478.1333333333334,1478.6810604999998,44360.431814999996,44360,1478.6666666666667,1480.214697,44406.44091,44406,1480.2,2.3595068881404586,3,1,3,2,2,2,b'HB_6_frameA.png',1482.5742038881403,44477.22611664421,44477,1482.5666666666666
53,1482.58940375,44477.6821125,44477,1482.5666666666666,1483.07266725,44492.1800175,44492,1483.0666666666666,1484.6063272499998,44538.189817499995,44538,1484.6,1.7338111483259127,2,0,7,1,2,3,b'SB_5_frameA_foil.png',1486.3401383983257,44590.20415194977,44590,1486.3333333333333
54,1486.3562447499999,44590.687342499994,44590,1486.3333333333333,1486.87277075,44606.1831225,44606,1486.8666666666666,1488.4064695,44652.194084999996,44652,1488.4,2.2659768147277646,2,1,2,2,2,3,b'SB_4_frameB.png',1490.6724463147277,44720.17338944183,44720,1490.6666666666667
55,1490.6898844999998,44720.696534999995,44720,1490.6666666666667,1491.22326075,44736.6978225,44736,1491.2,1492.75677125,44782.7031375,44782,1492.7333333333333,0.13341611926443875,3,1,3,2,2,2,b'HB_8_frameB.png',1492.8901873692644,44786.705621077934,44786,1492.8666666666666
56,1492.9019779999999,44787.05933999999,44787,1492.9,1493.40192925,44802.057877499996,44802,1493.4,1494.93559625,44848.067887499994,44848,1494.9333333333334,1.573405432573054,2,0,7,1,2,3,b'SB_8_frameA_foil.png',1496.509001682573,44895.270050477186,44895,1496.5
57,1496.5154125,44895.462374999996,44895,1496.5,1497.0321012499999,44910.9630375,44910,1497.0,1498.5657985,44956.973955,44956,1498.5333333333333,2.689033918082714,1,0,7,1,2,3,b'NB_3_frameA_foil.png',1501.2548324180827,45037.64497254248,45037,1501.2333333333333
58,1501.26518625,45037.9555875,45037,1501.2333333333333,1501.79846,45053.9538,45053,1501.7666666666667,1503.332121,45099.96363,45099,1503.3,1.2509252461604774,1,1,2,2,2,3,b'NB_9_frameB.png',1504.5830462461604,45137.49138738481,45137,1504.5666666666666
59,1504.58994025,45137.6982075,45137,1504.5666666666666,1505.07323625,45152.197087500004,45152,1505.0666666666666,1506.60681125,45198.2043375,45198,1506.6,2.7360432095010765,1,1,2,2,2,3,b'NB_5_frameB.png',1509.342854459501,45280.28563378503,45280,1509.3333333333333
60,1509.3452257499998,45280.356772499996,45280,1509.3333333333333,1509.8451914999998,45295.35574499999,45295,1509.8333333333333,1511.37889725,45341.366917499996,45341,1511.3666666666666,1.1702814287273213,2,1,2,2,2,3,b'SB_7_frameB.png',1512.5491786787272,45376.475360361816,45376,1512.5333333333333
61,1512.5523497499998,45376.570492499995,45376,1512.5333333333333,1513.0855917499998,45392.56775249999,45392,1513.0666666666666,1514.6191595,45438.574785000004,45438,1514.6,2.289392192789819,2,1,2,2,2,3,b'SB_6_frameA.png',1516.9085516927898,45507.2565507837,45507,1516.9
62,1516.9249005,45507.747015,45507,1516.9,1517.44139725,45523.241917499996,45523,1517.4333333333334,1518.97505475,45569.2516425,45569,1518.9666666666667,1.09598701284267,3,0,6,1,2,2,b'HB_2_frameB_foil.png',1520.0710417628427,45602.13125288528,45602,1520.0666666666666
63,1520.0754935,45602.264805,45602,1520.0666666666666,1520.592034,45617.76102,45617,1520.5666666666666,1522.125707,45663.77121,45663,1522.1,-0.9527273285202682,2,1,2,2,2,3,b'SB_9_frameA.png',1521.1729796714797,45635.18939014439,45635,1521.1666666666667
64,1521.181169,45635.43507,45635,1521.1666666666667,1521.68105825,45650.4317475,45650,1521.6666666666667,1523.2147444999998,45696.44233499999,45696,1523.2,1.6388360590790398,2,0,7,1,2,3,b'SB_2_frameB_foil.png',1524.8535805590789,45745.607416772364,45745,1524.8333333333333
65,1524.8704885,45746.114655,45746,1524.8666666666666,1525.35366525,45760.6099575,45760,1525.3333333333333,1526.8873589999998,45806.620769999994,45806,1526.8666666666666,1.9790538508677855,3,0,6,1,2,2,b'HB_5_frameB_foil.png',1528.8664128508676,45865.99238552603,45865,1528.8333333333333
66,1528.87257375,45866.1772125,45866,1528.8666666666666,1529.4057759999998,45882.173279999995,45882,1529.4,1530.93941225,45928.1823675,45928,1530.9333333333334,2.4849070030031726,3,0,7,1,2,3,b'HB_3_frameA_foil.png',1533.4243192530032,46002.72957759009,46002,1533.4
67,1533.4385415,46003.156245,46003,1533.4333333333334,1533.92178025,46017.6534075,46017,1533.9,1535.455334,46063.66002,46063,1535.4333333333334,1.5378987228032202,2,1,2,2,2,3,b'SB_2_frameA.png',1536.9932327228032,46109.7969816841,46109,1536.9666666666667
68,1537.00525525,46110.1576575,46110,1537.0,1537.488609,46124.65827,46124,1537.4666666666667,1539.0222595,46170.667785,46170,1539.0,1.092637741647195,3,1,2,2,2,3,b'HB_2_frameB.png',1540.1148972416472,46203.446917249414,46203,1540.1
69,1540.119984,46203.599519999996,46203,1540.1,1540.6698932499999,46220.096797499995,46220,1540.6666666666667,1542.2034637499999,46266.103912499995,46266,1542.2,1.1647472702316009,1,0,7,1,2,3,b'NB_4_frameB_foil.png',1543.3682110202315,46301.04633060694,46301,1543.3666666666666
70,1543.3799777499999,46301.3993325,46301,1543.3666666666666,1543.8465595,46315.396785,46315,1543.8333333333333,1545.3803209999999,46361.409629999995,46361,1545.3666666666666,2.3006561384536326,2,0,7,1,2,3,b'SB_1_frameA_foil.png',1547.6809771384535,46430.4293141536,46430,1547.6666666666667
71,1547.697461,46430.92383,46430,1547.6666666666667,1548.21400475,46446.4201425,46446,1548.2,1549.7477119999999,46492.431359999995,46492,1549.7333333333333,4.147347958874889,1,0,7,1,2,3,b'NB_6_frameB_foil.png',1553.8950599588748,46616.85179876624,46616,1553.8666666666666
72,1553.904937,46617.14811,46617,1553.9,1554.4215339999998,46632.64601999999,46632,1554.4,1555.95510275,46678.6530825,46678,1555.9333333333334,-1.0316060206969269,1,1,2,2,2,3,b'NB_14_frameA.png',1554.923496729303,46647.70490187909,46647,1554.9
73,1554.9277634999999,46647.832904999996,46647,1554.9,1555.460967,46663.82901,46663,1555.4333333333334,1556.994522,46709.83566,46709,1556.9666666666667,2.2355690302792937,2,1,2,2,2,3,b'SB_9_frameB.png',1559.2300910302793,46776.902730908376,46776,1559.2
74,1559.243446,46777.30338,46777,1559.2333333333333,1559.7933275,46793.799825,46793,1559.7666666666667,1561.3658839999998,46840.97652,46840,1561.3333333333333,2.809339255152736,2,0,6,1,2,2,b'SB_3_frameB_foil.png',1564.1752232551526,46925.25669765458,46925,1564.1666666666667
75,1564.1902412499999,46925.7072375,46925,1564.1666666666667,1564.6734955,46940.204865,46940,1564.6666666666667,1566.2071485,46986.214454999994,46986,1566.2,1.5869245347566903,2,1,2,2,2,3,b'SB_2_frameA.png',1567.7940730347566,47033.822191042695,47033,1567.7666666666667
76,1567.806413,47034.192390000004,47034,1567.8,1568.3729907499999,47051.1897225,47051,1568.3666666666666,1569.906595,47097.19785,47097,1569.9,2.0441344129503705,2,1,2,2,2,3,b'SB_1_frameA.png',1571.9507294129503,47158.52188238851,47158,1571.9333333333334
77,1571.9608959999998,47158.82687999999,47158,1571.9333333333334,1572.4607174999999,47173.821525,47173,1572.4333333333334,1573.994413,47219.832389999996,47219,1573.9666666666667,2.322578241699375,1,1,2,2,2,3,b'NB_30_frameA.png',1576.3169912416993,47289.50973725098,47289,1576.3
78,1576.32394525,47289.7183575,47289,1576.3,1576.8405149999999,47305.215449999996,47305,1576.8333333333333,1578.3741925,47351.225775,47351,1578.3666666666666,3.1926235565333627,1,1,2,2,2,3,b'NB_25_frameB.png',1581.5668160565333,47447.004481696,47447,1581.5666666666666
79,1581.5714994999998,47447.14498499999,47447,1581.5666666666666,1582.10482925,47463.1448775,47463,1582.1,1583.63839125,47509.151737500004,47509,1583.6333333333334,-1.2178067209897563,3,0,7,1,2,3,b'HB_5_frameB_foil.png',1582.4205845290103,47472.61753587031,47472,1582.4
80,1582.425837,47472.77511,47472,1582.4,1582.9590405,47488.771215,47488,1582.9333333333334,1584.4927344999999,47534.782035,47534,1584.4666666666667,1.6900769814383239,2,0,7,1,2,3,b'SB_2_frameB_foil.png',1586.1828114814382,47585.484344443146,47585,1586.1666666666667
81,1586.18936775,47585.6810325,47585,1586.1666666666667,1586.689279,47600.67837,47600,1586.6666666666667,1588.22293675,47646.6881025,47646,1588.2,1.8369707530364394,1,1,2,2,2,3,b'NB_1_frameB.png',1590.0599075030364,47701.79722509109,47701,1590.0333333333333
82,1590.07030775,47702.1092325,47702,1590.0666666666666,1590.63693175,47719.1079525,47719,1590.6333333333334,1592.1705075,47765.115225,47765,1592.1666666666667,3.297968788712751,2,0,7,1,2,3,b'SB_4_frameA_foil.png',1595.4684762887127,47864.054288661384,47864,1595.4666666666667
83,1595.47453125,47864.235937499994,47864,1595.4666666666667,1596.007744,47880.23232,47880,1596.0,1597.541289,47926.23867,47926,1597.5333333333333,0.30007869756082073,1,0,6,1,2,2,b'NB_17_frameA_foil.png',1597.8413676975608,47935.24103092682,47935,1597.8333333333333
84,1597.8532404999999,47935.597214999994,47935,1597.8333333333333,1598.3366302499999,47950.098907499996,47950,1598.3333333333333,1599.8700645,47996.101935,47996,1599.8666666666666,0.22026969818398356,3,0,6,1,2,2,b'HB_2_frameB_foil.png',1600.0903341981839,48002.71002594552,48002,1600.0666666666666
85,1600.0976269999999,48002.92881,48002,1600.0666666666666,1600.664164,48019.92492,48019,1600.6333333333334,1602.197704,48065.93112,48065,1602.1666666666667,2.010563017334789,3,0,6,1,2,2,b'HB_4_frameA_foil.png',1604.2082670173347,48126.248010520045,48126,1604.2
86,1604.2200129999999,48126.60039,48126,1604.2,1604.719977,48141.59931,48141,1604.7,1606.253561,48187.60683,48187,1606.2333333333333,1.3776376495952718,3,1,2,2,2,3,b'HB_1_frameA.png',1607.6311986495953,48228.935959487855,48228,1607.6
87,1607.638264,48229.147919999996,48229,1607.6333333333334,1608.15479625,48244.643887499995,48244,1608.1333333333334,1609.68852425,48290.6557275,48290,1609.6666666666667,2.970978939672932,1,1,2,2,2,3,b'NB_11_frameB.png',1612.659503189673,48379.78509569019,48379,1612.6333333333334
88,1612.6769525,48380.308575,48380,1612.6666666666667,1613.14346275,48394.303882500004,48394,1613.1333333333334,1614.6771575,48440.314725000004,48440,1614.6666666666667,1.8922089186380617,2,0,7,1,2,3,b'SB_6_frameB_foil.png',1616.569366418638,48497.080992559146,48497,1616.5666666666666
89,1616.5847775,48497.543325,48497,1616.5666666666666,1617.0846655,48512.539965,48512,1617.0666666666666,1618.6183282499999,48558.5498475,48558,1618.6,1.311199026182294,2,1,2,2,2,3,b'SB_2_frameB.png',1619.9295272761822,48597.88581828547,48597,1619.9
90,1619.9397924999998,48598.19377499999,48598,1619.9333333333334,1620.5062967499998,48615.1889025,48615,1620.5,1622.039994,48661.19982,48661,1622.0333333333333,4.0143427339498885,3,0,7,1,2,3,b'HB_7_frameA_foil.png',1626.0543367339499,48781.6301020185,48781,1626.0333333333333
91,1626.0618272499999,48781.854817499996,48781,1626.0333333333333,1626.54503125,48796.3509375,48796,1626.5333333333333,1628.0787719999998,48842.36315999999,48842,1628.0666666666666,-1.0522917047492228,3,1,3,2,2,2,b'HB_1_frameB.png',1627.0264802952506,48810.79440885752,48810,1627.0
92,1627.02873375,48810.862012499994,48810,1627.0,1627.54536975,48826.361092499996,48826,1627.5333333333333,1629.0790842499998,48872.372527499996,48872,1629.0666666666666,1.1409485472249798,1,1,3,2,2,2,b'NB_6_frameA.png',1630.2200327972248,48906.600983916745,48906,1630.2
93,1630.2369167499999,48907.107502499995,48907,1630.2333333333333,1630.70344475,48921.1033425,48921,1630.7,1632.23695275,48967.1085825,48967,1632.2333333333333,-0.5269562248140574,3,0,6,1,2,2,b'HB_6_frameB_foil.png',1631.709996525186,48951.299895755576,48951,1631.7
94,1631.7207935,48951.623804999996,48951,1631.7,1632.20410325,48966.1230975,48966,1632.2,1633.7377549999999,49012.13265,49012,1633.7333333333333,2.0959985517547466,3,0,7,1,2,3,b'HB_1_frameA_foil.png',1635.8337535517546,49075.01260655264,49075,1635.8333333333333
95,1635.83854825,49075.1564475,49075,1635.8333333333333,1636.3552312499999,49090.656937499996,49090,1636.3333333333333,1637.888892,49136.66676,49136,1637.8666666666666,-0.3223122531780973,3,0,5,1,2,1,b'HB_1_frameB_foil.png',1637.5665797468218,49126.99739240466,49126,1637.5333333333333
96,1637.5840385,49127.521154999995,49127,1637.5666666666666,1638.1505559999998,49144.51667999999,49144,1638.1333333333334,1639.684258,49190.52774,49190,1639.6666666666667,3.2181438063271344,2,1,2,2,2,3,b'SB_8_frameA.png',1642.9024018063271,49287.07205418981,49287,1642.9
97,1642.9110382499998,49287.331147499994,49287,1642.9,1643.444251,49303.327529999995,49303,1643.4333333333334,1644.97799975,49349.3399925,49349,1644.9666666666667,2.7291773032047786,1,1,2,2,2,3,b'NB_27_frameB.png',1647.7071770532048,49431.21531159614,49431,1647.7
98,1647.7145234999998,49431.435704999996,49431,1647.7,1648.214477,49446.43431,49446,1648.2,1649.748036,49492.44108,49492,1649.7333333333333,0.6446330565959215,2,0,7,1,2,3,b'SB_3_frameA_foil.png',1650.3926690565959,49511.780071697875,49511,1650.3666666666666
99,1650.4019919999998,49512.05976,49512,1650.4,1650.9352215,49528.056645,49528,1650.9333333333334,1652.4689469999998,49574.06840999999,49574,1652.4666666666667,1.5046427409979515,2,0,7,1,2,3,b'SB_4_frameA_foil.png',1653.9735897409978,49619.20769222993,49619,1653.9666666666667
100,1653.9828165,49619.484495,49619,1653.9666666666667,1654.49934975,49634.9804925,49634,1654.4666666666667,1656.0330024999998,49680.990074999994,49680,1656.0,3.329041506687645,3,1,2,2,2,3,b'HB_5_frameB.png',1659.3620440066875,49780.86132020062,49780,1659.3333333333333
101,1659.379724,49781.39172,49781,1659.3666666666666,1659.9295809999999,49797.887429999995,49797,1659.9,1661.46321,49843.89629999999,49843,1661.4333333333334,1.2831567012472078,2,0,7,1,2,3,b'SB_7_frameA_foil.png',1662.746366701247,49882.39100103741,49882,1662.7333333333333
102,1662.7599834999999,49882.799504999995,49882,1662.7333333333333,1663.30994975,49899.2984925,49899,1663.3,1664.843635,49945.309049999996,49945,1664.8333333333333,1.4691552588483319,1,0,7,1,2,3,b'NB_26_frameB_foil.png',1666.3127902588483,49989.383707765446,49989,1666.3
103,1666.3153149999998,49989.459449999995,49989,1666.3,1666.865171,50005.955129999995,50005,1666.8333333333333,1668.39868125,50051.9604375,50051,1668.3666666666666,1.5004215899971314,2,0,7,1,2,3,b'SB_5_frameB_foil.png',1669.899102839997,50096.97308519991,50096,1669.8666666666666
104,1669.903392,50097.10176,50097,1669.9,1670.4199265,50112.597795,50112,1670.4,1671.9536202499999,50158.6086075,50158,1671.9333333333334,2.6276374831213616,3,0,7,1,2,3,b'HB_2_frameB_foil.png',1674.5812577331212,50237.43773199364,50237,1674.5666666666666
105,1674.5934197499998,50237.8025925,50237,1674.5666666666666,1675.10996175,50253.2988525,50253,1675.1,1676.64353775,50299.3061325,50299,1676.6333333333334,1.5407999098533764,2,1,7,1,1,3,b'SB_4_frameA.png',1678.1843376598533,50345.5301297956,50345,1678.1666666666667
106,1678.2011945,50346.035834999995,50346,1678.2,1678.750983,50362.52949,50362,1678.7333333333333,1680.28462825,50408.5388475,50408,1680.2666666666667,2.5456176117877476,1,1,2,2,2,3,b'NB_4_frameA.png',1682.8302458617877,50484.90737585363,50484,1682.8
107,1682.84783875,50485.4351625,50485,1682.8333333333333,1683.4143777499999,50502.4313325,50502,1683.4,1684.9480485,50548.441455,50548,1684.9333333333334,3.0628263092949055,2,1,7,1,1,3,b'SB_6_frameB.png',1688.0108748092948,50640.32624427885,50640,1688.0
108,1688.0227055,50640.681165,50640,1688.0,1688.52255225,50655.6765675,50655,1688.5,1690.0559954999999,50701.679865,50701,1690.0333333333333,1.5596688410732895,1,0,2,2,1,3,b'NB_30_frameB_foil.png',1691.6156643410732,50748.4699302322,50748,1691.6
109,1691.6207937499998,50748.623812499995,50748,1691.6,1692.1373542499998,50764.12062749999,50764,1692.1333333333334,1693.6710537499998,50810.131612499994,50810,1693.6666666666667,2.9229350881068967,1,0,7,1,2,3,b'NB_2_frameB_foil.png',1696.5939888381067,50897.8196651432,50897,1696.5666666666666
110,1696.6022484999999,50898.067455,50898,1696.6,1697.1354407499998,50914.06322249999,50914,1697.1333333333334,1698.66918075,50960.0754225,50960,1698.6666666666667,1.3540001928340644,3,1,2,2,2,3,b'HB_4_frameB.png',1700.023180942834,51000.69542828502,51000,1700.0
111,1700.0359449999999,51001.078349999996,51001,1700.0333333333333,1700.51920425,51015.576127500004,51015,1700.5,1702.052774,51061.58322,51061,1702.0333333333333,1.032561985659413,1,1,7,1,1,3,b'NB_8_frameA.png',1703.0853359856594,51092.56007956978,51092,1703.0666666666666
112,1703.1025949999998,51093.077849999994,51093,1703.1,1703.652461,51109.573829999994,51109,1703.6333333333334,1705.1861609999999,51155.58482999999,51155,1705.1666666666667,2.2036454816698097,2,0,7,1,2,3,b'SB_2_frameA_foil.png',1707.3898064816697,51221.69419445009,51221,1707.3666666666666
113,1707.4060057499998,51222.1801725,51222,1707.4,1707.88920375,51236.6761125,51236,1707.8666666666666,1709.42293125,51282.6879375,51282,1709.4,3.9436599076725543,2,1,7,1,1,3,b'SB_1_frameB.png',1713.3665911576725,51400.997734730176,51400,1713.3333333333333
114,1713.38166325,51401.4498975,51401,1713.3666666666666,1713.8648735,51415.946205,51415,1713.8333333333333,1715.39855075,51461.9565225,51461,1715.3666666666666,1.6027782188612036,2,0,7,1,2,3,b'SB_2_frameA_foil.png',1717.0013289688611,51510.03986906583,51510,1717.0
115,1717.0054579999999,51510.163739999996,51510,1717.0,1717.48865925,51524.6597775,51524,1717.4666666666667,1719.0223657499998,51570.6709725,51570,1719.0,1.9328745338134468,2,1,7,1,1,3,b'SB_2_frameA.png',1720.9552402838133,51628.6572085144,51628,1720.9333333333334
116,1720.9676244999998,51629.02873499999,51629,1720.9666666666667,1721.5175092499999,51645.5252775,51645,1721.5,1723.0513107499999,51691.53932249999,51691,1723.0333333333333,1.9589601732441224,2,0,2,2,1,3,b'SB_8_frameB_foil.png',1725.010270923244,51750.30812769732,51750,1725.0
117,1725.0126154999998,51750.378464999994,51750,1725.0,1725.5459019999998,51766.37706,51766,1725.5333333333333,1727.07966975,51812.3900925,51812,1727.0666666666666,4.798374847450759,1,1,7,1,1,3,b'NB_2_frameA.png',1731.8780445974508,51956.34133792352,51956,1731.8666666666666
118,1731.881455,51956.44365,51956,1731.8666666666666,1732.43138925,51972.9416775,51972,1732.4,1733.964911,52018.94733,52018,1733.9333333333334,-0.3134604277438484,3,0,7,1,2,3,b'HB_6_frameB_foil.png',1733.6514505722562,52009.54351716769,52009,1733.6333333333334
119,1733.6594344999999,52009.78303499999,52009,1733.6333333333334,1734.1592735,52024.778204999995,52024,1734.1333333333334,1735.69300275,52070.7900825,52070,1735.6666666666667,2.9079860779456794,2,0,2,2,1,3,b'SB_1_frameB_foil.png',1738.6009888279457,52158.029664838374,52158,1738.6
120,1738.6188419999999,52158.565259999996,52158,1738.6,1739.16873025,52175.0619075,52175,1739.1666666666667,1740.7022427499999,52221.06728249999,52221,1740.7,1.8489553862600587,3,1,4,2,2,1,b'HB_2_frameA.png',1742.55119813626,52276.535944087795,52276,1742.5333333333333
121,1742.5686504999999,52277.05951499999,52277,1742.5666666666666,1743.11864225,52293.5592675,52293,1743.1,1744.652173,52339.56519,52339,1744.6333333333334,2.7248288837145083,3,0,2,2,1,3,b'HB_5_frameA_foil.png',1747.3770018837145,52421.31005651144,52421,1747.3666666666666
122,1747.38765,52421.629499999995,52421,1747.3666666666666,1747.8709299999998,52436.12789999999,52436,1747.8666666666666,1749.4044964999998,52482.134894999996,52482,1749.4,3.405261633277405,1,0,5,1,2,1,b'NB_28_frameB_foil.png',1752.8097581332772,52584.29274399832,52584,1752.8
123,1752.8224705,52584.674115,52584,1752.8,1753.30583875,52599.1751625,52599,1753.3,1754.8727505,52646.182515,52646,1754.8666666666666,2.7659345619613305,1,1,7,1,1,3,b'NB_20_frameA.png',1757.6386850619613,52729.16055185884,52729,1757.6333333333334
124,1757.65186325,52729.555897499995,52729,1757.6333333333334,1758.1851104999998,52745.553315,52745,1758.1666666666667,1759.71875125,52791.5625375,52791,1759.7,2.1604488603770733,2,1,7,1,1,3,b'SB_1_frameB.png',1761.879200110377,52856.376003311314,52856,1761.8666666666666
125,1761.88887975,52856.666392499996,52856,1761.8666666666666,1762.35554125,52870.6662375,52870,1762.3333333333333,1763.88899225,52916.6697675,52916,1763.8666666666666,2.1926249787793495,3,0,6,1,2,2,b'HB_4_frameA_foil.png',1766.0816172287794,52982.448516863384,52982,1766.0666666666666
126,1766.0964079999999,52982.892239999994,52982,1766.0666666666666,1766.6296244999999,52998.88873499999,52998,1766.6,1768.1632674999998,53044.898024999995,53044,1768.1333333333334,0.9811884312075563,1,0,5,1,2,1,b'NB_11_frameA_foil.png',1769.1444559312074,53074.33367793622,53074,1769.1333333333334
127,1769.14825925,53074.4477775,53074,1769.1333333333334,1769.6648122499998,53089.94436749999,53089,1769.6333333333334,1771.1985124999999,53135.955375,53135,1771.1666666666667,2.7722984007559717,1,1,7,1,1,3,b'NB_3_frameB.png',1773.9708109007559,53219.12432702268,53219,1773.9666666666667
128,1773.9876782499998,53219.630347499995,53219,1773.9666666666667,1774.47087475,53234.126242499995,53234,1774.4666666666667,1776.00445775,53280.1337325,53280,1776.0,1.3851344447466545,1,1,7,1,1,3,b'NB_29_frameB.png',1777.3895921947467,53321.6877658424,53321,1777.3666666666666
129,1777.4052467499998,53322.15740249999,53322,1777.4,1777.92177825,53337.6533475,53337,1777.9,1779.45550325,53383.6650975,53383,1779.4333333333334,3.9981204060604796,1,1,3,2,2,2,b'NB_15_frameB.png',1783.4536236560605,53503.608709681816,53503,1783.4333333333334
130,1783.469055,53504.07165,53504,1783.4666666666667,1784.0189692499998,53520.5690775,53520,1784.0,1785.5524735,53566.574205,53566,1785.5333333333333,1.1005053976550698,3,1,7,1,1,3,b'HB_4_frameA.png',1786.652978897655,53599.58936692965,53599,1786.6333333333334
131,1786.66983375,53600.0950125,53600,1786.6666666666667,1787.186411,53615.59233,53615,1787.1666666666667,1788.71999975,53661.5999925,53661,1788.7,1.3861111171427183,3,0,7,1,2,3,b'HB_1_frameB_foil.png',1790.1061108671427,53703.18332601428,53703,1790.1
132,1790.11421925,53703.426577499995,53703,1790.1,1790.6141969999999,53718.42591,53718,1790.6,1792.14779325,53764.4337975,53764,1792.1333333333334,3.5717263472033665,3,1,7,1,1,3,b'HB_1_frameB.png',1795.7195195972033,53871.5855879161,53871,1795.7
133,1795.7378995,53872.136985,53872,1795.7333333333333,1796.2378107499999,53887.134322499995,53887,1796.2333333333333,1797.7714075,53933.142224999996,53933,1797.7666666666667,2.731700794538483,1,0,3,2,1,2,b'NB_21_frameA_foil.png',1800.5031082945384,54015.09324883615,54015,1800.5
134,1800.5179382499998,54015.538147499996,54015,1800.5,1801.001116,54030.03348,54030,1801.0,1802.534831,54076.04493,54076,1802.5333333333333,1.9486062501673587,2,0,7,1,2,3,b'SB_1_frameA_foil.png',1804.4834372501673,54134.50311750502,54134,1804.4666666666667
135,1804.4940944999998,54134.822835,54134,1804.4666666666667,1805.0273404999998,54150.82021499999,54150,1805.0,1806.56100625,54196.8301875,54196,1806.5333333333333,3.5454427908407524,1,0,2,2,1,3,b'NB_29_frameA_foil.png',1810.1064490408407,54303.193471225226,54303,1810.1
136,1810.1130034999999,54303.390105,54303,1810.1,1810.629594,54318.88782,54318,1810.6,1812.163231,54364.89693,54364,1812.1333333333334,3.192489417444449,3,1,7,1,1,3,b'HB_3_frameB.png',1815.3557204174444,54460.671612523336,54460,1815.3333333333333
137,1815.3670917499999,54461.0127525,54461,1815.3666666666666,1815.916941,54477.50823,54477,1815.9,1817.4507055,54523.521165,54523,1817.4333333333334,1.5715794271673076,1,1,7,1,1,3,b'NB_17_frameB.png',1819.0222849271672,54570.66854781502,54570,1819.0
138,1819.0347709999999,54571.04313,54571,1819.0333333333333,1819.5680472499998,54587.0414175,54587,1819.5666666666666,1821.101706,54633.051179999995,54633,1821.1,1.1941218817955814,1,0,3,2,1,2,b'NB_8_frameB_foil.png',1822.2958278817955,54668.87483645386,54668,1822.2666666666667
139,1822.30045125,54669.013537499995,54669,1822.3,1822.83368525,54685.0105575,54685,1822.8333333333333,1824.367131,54731.01393,54731,1824.3666666666666,2.503171648073476,3,0,2,2,1,3,b'HB_2_frameB_foil.png',1826.8703026480734,54806.109079442205,54806,1826.8666666666666
140,1826.8772017499998,54806.31605249999,54806,1826.8666666666666,1827.41043625,54822.3130875,54822,1827.4,1828.9440789999999,54868.322369999994,54868,1828.9333333333334,-0.3550162276951596,3,1,6,1,1,2,b'HB_1_frameB.png',1828.5890627723047,54857.67188316914,54857,1828.5666666666666
141,1828.5998295,54857.994885,54857,1828.5666666666666,1829.1163649999999,54873.49094999999,54873,1829.1,1830.650001,54919.500029999996,54919,1830.6333333333334,2.1218650261871517,1,1,7,1,1,3,b'NB_12_frameA.png',1832.7718660261871,54983.15598078561,54983,1832.7666666666667
142,1832.789753,54983.69259,54983,1832.7666666666667,1833.32299475,54999.689842499996,54999,1833.3,1834.85649475,55045.6948425,55045,1834.8333333333333,-2.271625733410474,3,0,2,2,1,3,b'HB_6_frameA_foil.png',1832.5848690165894,54977.54607049769,54977,1832.5666666666666
143,1832.5892427499998,54977.67728249999,54977,1832.5666666666666,1833.105814,54993.17442,54993,1833.1,1834.6395089999999,55039.185269999994,55039,1834.6333333333334,1.247694855206646,1,1,7,1,1,3,b'NB_16_frameA.png',1835.8872038552065,55076.616115656194,55076,1835.8666666666666
144,1835.8993535,55076.980605,55076,1835.8666666666666,1836.4325542499998,55092.97662749999,55092,1836.4,1837.96618825,55138.9856475,55138,1837.9333333333334,1.871806597453542,2,1,2,2,2,3,b'SB_6_frameB.png',1839.8379948474535,55195.139845423604,55195,1839.8333333333333
145,1839.8508815,55195.526445,55195,1839.8333333333333,1840.317407,55209.52221,55209,1840.3,1841.8509977499998,55255.529932499994,55255,1841.8333333333333,0.8967445491580293,1,1,6,1,1,2,b'NB_7_frameB.png',1842.7477422991578,55282.432268974735,55282,1842.7333333333333
146,1842.755698,55282.670939999996,55282,1842.7333333333333,1843.30563325,55299.168997500004,55299,1843.3,1844.83921225,55345.1763675,55345,1844.8333333333333,2.996001132996753,2,1,7,1,1,3,b'SB_5_frameB.png',1847.8352133829967,55435.0564014899,55435,1847.8333333333333
147,1847.8398762499999,55435.196287499995,55435,1847.8333333333333,1848.3731142499998,55451.193427499995,55451,1848.3666666666666,1849.90679125,55497.2037375,55497,1849.9,3.4631148774642497,1,0,7,1,2,3,b'NB_12_frameB_foil.png',1853.3699061274642,55601.09718382393,55601,1853.3666666666666
148,1853.42247075,55602.6741225,55602,1853.4,1853.9724347499998,55619.17304249999,55619,1853.9666666666667,1855.5061417499999,55665.184252499996,55665,1855.5,0.3122123589273542,3,0,4,2,1,1,b'HB_7_frameB_foil.png',1855.8183541089272,55674.550623267816,55674,1855.8
149,1855.830917,55674.92751,55674,1855.8,1856.3308295,55689.924885,55689,1856.3,1857.86437925,55735.9313775,55735,1857.8333333333333,0.2505534090450965,3,1,7,1,1,3,b'HB_4_frameB.png',1858.114932659045,55743.44797977135,55743,1858.1
150,1858.117432,55743.52296,55743,1858.1,1858.617323,55758.51969,55758,1858.6,1860.15083525,55804.5250575,55804,1860.1333333333334,0.5336388832656667,1,0,3,2,1,2,b'NB_20_frameB_foil.png',1860.6844741332657,55820.53422399797,55820,1860.6666666666667
151,1860.698369,55820.951069999996,55820,1860.6666666666667,1861.2648824999999,55837.946475,55837,1861.2333333333333,1862.7985764999999,55883.95729499999,55883,1862.7666666666667,2.0926669778418727,1,1,2,2,2,3,b'NB_26_frameA.png',1864.8912434778417,55946.73730433525,55946,1864.8666666666666
152,1864.90213925,55947.0641775,55947,1864.9,1865.3853295,55961.559884999995,55961,1865.3666666666666,1866.91890475,56007.5671425,56007,1866.9,3.864168093132321,1,0,2,2,1,3,b'NB_13_frameA_foil.png',1870.7830728431322,56123.492185293966,56123,1870.7666666666667
153,1870.7984645,56123.953935,56123,1870.7666666666667,1871.36502675,56140.950802499996,56140,1871.3333333333333,1872.8986357499998,56186.959072499994,56186,1872.8666666666666,2.3222748613916337,2,0,2,2,1,3,b'SB_1_frameB_foil.png',1875.2209106113914,56256.62731834174,56256,1875.2
154,1875.2338874999998,56257.016625,56257,1875.2333333333333,1875.7504589999999,56272.51377,56272,1875.7333333333333,1877.28396325,56318.5188975,56318,1877.2666666666667,0.9683414727915078,3,0,2,2,1,3,b'HB_4_frameB_foil.png',1878.2523047227915,56347.56914168374,56347,1878.2333333333333
155,1878.26463225,56347.9389675,56347,1878.2333333333333,1878.7979595,56363.938785,56363,1878.7666666666667,1880.3313939999998,56409.94181999999,56409,1880.3,1.7831741622067057,2,1,7,1,1,3,b'SB_1_frameB.png',1882.1145681622065,56463.437044866194,56463,1882.1
156,1882.12967725,56463.8903175,56463,1882.1,1882.61286825,56478.386047500004,56478,1882.6,1884.1465755,56524.397265,56524,1884.1333333333334,0.7267929762019776,3,1,4,2,2,1,b'HB_1_frameA.png',1884.873368476202,56546.20105428606,56546,1884.8666666666666
157,1884.8810992499998,56546.43297749999,56546,1884.8666666666666,1885.4310019999998,56562.93005999999,56562,1885.4,1886.9646054999998,56608.93816499999,56608,1886.9333333333334,2.0771871416363865,2,1,7,1,1,3,b'SB_7_frameA.png',1889.0417926416362,56671.253779249084,56671,1889.0333333333333
158,1889.0604435,56671.813305,56671,1889.0333333333333,1889.5269735,56685.809205,56685,1889.5,1891.0606515,56731.819545,56731,1891.0333333333333,0.36271652864525095,1,0,6,1,2,2,b'NB_7_frameA_foil.png',1891.4233680286452,56742.701040859356,56742,1891.4
159,1891.4337105,56743.011314999996,56743,1891.4333333333334,1892.0002862499998,56760.00858749999,56760,1892.0,1893.53380425,56806.0141275,56806,1893.5333333333333,3.6624708612798713,2,1,2,2,2,3,b'SB_1_frameA.png',1897.1962751112799,56915.888253338395,56915,1897.1666666666667
160,1897.20899975,56916.2699925,56916,1897.2,1897.7089919999999,56931.269759999996,56931,1897.7,1899.24262475,56977.2787425,56977,1899.2333333333333,2.596648101520259,3,1,2,2,2,3,b'HB_5_frameA.png',1901.8392728515203,57055.17818554561,57055,1901.8333333333333
161,1901.8563802499998,57055.691407499995,57055,1901.8333333333333,1902.42292525,57072.687757499996,57072,1902.4,1903.9566552499998,57118.699657499994,57118,1903.9333333333334,0.6379906123038381,3,1,7,1,1,3,b'HB_6_frameA.png',1904.5946458623037,57137.83937586911,57137,1904.5666666666666
162,1904.6112715,57138.338145,57138,1904.6,1905.127845,57153.83535,57153,1905.1,1906.66141075,57199.8423225,57199,1906.6333333333334,4.179759191931225,3,1,7,1,1,3,b'HB_9_frameA.png',1910.8411699419312,57325.23509825794,57325,1910.8333333333333
163,1910.85233675,57325.5701025,57325,1910.8333333333333,1911.38558675,57341.5676025,57341,1911.3666666666666,1912.9192085,57387.576255,57387,1912.9,3.257895161223132,1,1,7,1,1,3,b'NB_21_frameB.png',1916.177103661223,57485.313109836694,57485,1916.1666666666667
164,1916.1801504999999,57485.404514999995,57485,1916.1666666666667,1916.7467135,57502.401405,57502,1916.7333333333333,1918.2804065,57548.412195,57548,1918.2666666666667,1.6782825600821525,1,0,6,1,2,2,b'NB_22_frameB_foil.png',1919.9586890600822,57598.76067180246,57598,1919.9333333333334
165,1919.9733494999998,57599.200484999994,57599,1919.9666666666667,1920.52327225,57615.6981675,57615,1920.5,1922.0567365,57661.702095,57661,1922.0333333333333,3.134086269303225,2,0,6,1,2,2,b'SB_6_frameA_foil.png',1925.1908227693032,57755.7246830791,57755,1925.1666666666667
166,1925.2009254999998,57756.02776499999,57756,1925.2,1925.73412425,57772.023727499996,57772,1925.7333333333333,1927.267703,57818.03109,57818,1927.2666666666667,1.703949978982564,2,1,7,1,1,3,b'SB_5_frameA.png',1928.9716529789825,57869.149589369474,57869,1928.9666666666667
167,1928.9898947499998,57869.696842499994,57869,1928.9666666666667,1929.4732465,57884.197394999996,57884,1929.4666666666667,1931.0068609999998,57930.20582999999,57930,1931.0,0.6165596861974336,1,1,7,1,1,3,b'NB_22_frameA.png',1931.6234206861973,57948.702620585915,57948,1931.6
168,1931.6268432499999,57948.805297499996,57948,1931.6,1932.1602045,57964.806135,57964,1932.1333333333334,1933.6938599999999,58010.8158,58010,1933.6666666666667,1.4821701858891174,3,1,5,1,1,1,b'HB_7_frameB.png',1935.176030185889,58055.28090557667,58055,1935.1666666666667
169,1935.18431575,58055.5294725,58055,1935.1666666666667,1935.7341695,58072.025085,58072,1935.7333333333333,1937.267885,58118.03655,58118,1937.2666666666667,1.7787661180482246,2,1,7,1,1,3,b'SB_2_frameB.png',1939.0466511180482,58171.399533541444,58171,1939.0333333333333
170,1939.06300775,58171.8902325,58171,1939.0333333333333,1939.62949325,58188.8847975,58188,1939.6,1941.1631787499998,58234.89536249999,58234,1941.1333333333334,1.749731959658675,3,0,3,2,1,2,b'HB_1_frameA_foil.png',1942.9129107096585,58287.38732128975,58287,1942.9
171,1942.9279307499999,58287.837922499995,58287,1942.9,1943.4944615,58304.833845,58304,1943.4666666666667,1945.02805675,58350.841702499994,58350,1945.0,0.3035090122721158,1,1,7,1,1,3,b'NB_24_frameA.png',1945.331565762272,58359.94697286816,58359,1945.3
172,1945.3384859999999,58360.154579999995,58360,1945.3333333333333,1945.83844,58375.1532,58375,1945.8333333333333,1947.3719952499998,58421.159857499995,58421,1947.3666666666666,2.560109600366559,1,0,6,1,2,2,b'NB_9_frameA_foil.png',1949.9321048503664,58497.96314551099,58497,1949.9
173,1949.93732325,58498.1196975,58498,1949.9333333333334,1950.4538645,58513.615935,58513,1950.4333333333334,1951.98756025,58559.6268075,58559,1951.9666666666667,-1.344803396903444,3,1,7,1,1,3,b'HB_2_frameA.png',1950.6427568530964,58519.282705592894,58519,1950.6333333333334
174,1950.6488324999998,58519.464974999995,58519,1950.6333333333334,1951.182008,58535.46024,58535,1951.1666666666667,1952.7157535,58581.472604999995,58581,1952.7,2.377414017159026,2,0,7,1,2,3,b'SB_3_frameB_foil.png',1955.093167517159,58652.795025514766,58652,1955.0666666666666
175,1955.1086169999999,58653.25851,58653,1955.1,1955.575187,58667.25561,58667,1955.5666666666666,1957.1088475,58713.265425,58713,1957.1,5.487278900807723,1,1,3,2,2,2,b'NB_13_frameB.png',1962.5961264008076,58877.88379202423,58877,1962.5666666666666
176,1962.6032437499998,58878.097312499995,58878,1962.6,1963.153132,58894.59396,58894,1963.1333333333334,1964.6868152499999,58940.6044575,58940,1964.6666666666667,1.3123573336051777,2,0,5,1,2,1,b'SB_1_frameB_foil.png',1965.999172583605,58979.97517750815,58979,1965.9666666666667
177,1966.0371907499998,58981.11572249999,58981,1966.0333333333333,1966.6484985,58999.454955,58999,1966.6333333333334,1968.1468164999999,59044.404494999995,59044,1968.1333333333334,1.804454876750242,2,1,4,2,2,1,b'SB_30_frameA.png',1969.9512713767501,59098.5381413025,59098,1969.9333333333334
178,1969.9854705,59099.564115,59099,1969.9666666666667,1970.57498175,59117.2494525,59117,1970.5666666666666,1972.1159925,59163.479775,59163,1972.1,1.1616522726835683,2,0,5,1,2,1,b'SB_30_frameB_foil.png',1973.2776447726835,59198.32934318051,59198,1973.2666666666667
179,1973.325826,59199.77478,59199,1973.3,1973.91582025,59217.4746075,59217,1973.9,1975.4237597499998,59262.712792499995,59262,1975.4,0.3579536334145814,3,1,7,1,1,3,b'HB_30_frameB.png',1975.7817133834144,59273.45140150243,59273,1975.7666666666667
180,1975.83712225,59275.1136675,59275,1975.8333333333333,1976.42973575,59292.8920725,59292,1976.4,1977.95367425,59338.6102275,59338,1977.9333333333334,-2.085641337209381,3,0,7,1,2,3,b'HB_30_frameA_foil.png',1975.8680329127906,59276.04098738372,59276,1975.8666666666666
