trial_num,fixcross_time,fixation_HZ,fixation_bin,fixation_regarded,start_time,Fstart_HZ,Fstart_bin,Fstart_regarded,stop_time,Fstop_HZ,Fstop_bin,Fstop_regarded,RT,boundary_type,stimuli_type,resp_value,old_new,accuracy,confidence,frameName,response_time,response_HZ,response_bin,response_regarded
1,1285.4099305,38562.297915,38562,1285.4,1285.971816,38579.15448,38579,1285.9666666666667,1287.550254,38626.50762,38626,1287.5333333333333,2.2132334581110626,3,1,2,2,2,3,b'HB_9_frameB.png',1289.763487458111,38692.90462374333,38692,1289.7333333333333
2,1289.7935532499998,38693.80659749999,38693,1289.7666666666667,1290.315462,38709.46386,38709,1290.3,1291.84357775,38755.3073325,38755,1291.8333333333333,1.9186600879766047,3,1,2,2,2,3,b'HB_4_frameA.png',1293.7622378379765,38812.8671351393,38812,1293.7333333333333
3,1293.7926625,38813.779875,38813,1293.7666666666667,1294.29434775,38828.8304325,38828,1294.2666666666667,1295.84162025,38875.2486075,38875,1295.8333333333333,1.3999390482204035,1,0,7,1,2,3,b'NB_29_frameA_foil.png',1297.2415592982204,38917.24677894661,38917,1297.2333333333333
4,1297.26738325,38918.0214975,38918,1297.2666666666667,1297.769072,38933.07216,38933,1297.7666666666667,1299.317624,38979.52872,38979,1299.3,1.9433028397616,3,1,2,2,2,3,b'HB_1_frameB.png',1301.2609268397616,39037.82780519285,39037,1301.2333333333333
5,1301.2766602499998,39038.29980749999,39038,1301.2666666666667,1301.8584417499999,39055.7532525,39055,1301.8333333333333,1303.3857652499998,39101.57295749999,39101,1303.3666666666666,1.8571022204123437,1,0,2,2,1,3,b'NB_3_frameA_foil.png',1305.2428674704122,39157.28602411236,39157,1305.2333333333333
6,1305.2642652499999,39157.9279575,39157,1305.2333333333333,1305.7860222499999,39173.5806675,39173,1305.7666666666667,1307.31321,39219.3963,39219,1307.3,2.3871550385374576,3,1,2,2,2,3,b'HB_9_frameA.png',1309.7003650385375,39291.010951156124,39291,1309.7
7,1309.7139587499998,39291.4187625,39291,1309.7,1310.25566775,39307.6700325,39307,1310.2333333333333,1311.80295075,39354.0885225,39354,1311.8,1.2888528746552765,2,1,3,2,2,2,b'SB_3_frameA.png',1313.0918036246553,39392.75410873966,39392,1313.0666666666666
8,1313.115304,39393.45912,39393,1313.1,1313.6370605,39409.111815,39409,1313.6333333333334,1315.1841865,39455.525595,39455,1315.1666666666667,1.6465816479176283,1,1,2,2,2,3,b'NB_4_frameA.png',1316.8307681479175,39504.92304443753,39504,1316.8
9,1316.8393589999998,39505.18076999999,39505,1316.8333333333333,1317.381329,39521.43987,39521,1317.3666666666666,1318.928508,39567.85524,39567,1318.9,1.379065312561579,2,0,6,1,2,2,b'SB_5_frameB_foil.png',1320.3075733125615,39609.227199376845,39609,1320.3
10,1320.3316965,39609.950894999994,39609,1320.3,1320.8533607499999,39625.6008225,39625,1320.8333333333333,1322.4012575,39672.037724999995,39672,1322.4,1.8334341833833605,3,0,7,1,2,3,b'HB_2_frameB_foil.png',1324.2346916833833,39727.040750501495,39727,1324.2333333333333
11,1324.2453632499999,39727.360897499995,39727,1324.2333333333333,1324.80725775,39744.2177325,39744,1324.8,1326.3344235,39790.032705,39790,1326.3333333333333,2.1274885261664167,3,1,2,2,2,3,b'HB_2_frameA.png',1328.4619120261664,39853.85736078499,39853,1328.4333333333334
12,1328.4713505,39854.140515,39854,1328.4666666666667,1329.0132557499999,39870.397672499996,39870,1329.0,1330.5603987499999,39916.811962499996,39916,1330.5333333333333,1.4044414086965844,3,1,7,1,1,3,b'HB_1_frameB.png',1331.9648401586965,39958.945204760894,39958,1331.9333333333334
13,1331.97704475,39959.3113425,39959,1331.9666666666667,1332.51873075,39975.5619225,39975,1332.5,1334.0465769999998,40021.39730999999,40021,1334.0333333333333,1.9136756238294765,3,1,2,2,2,3,b'HB_7_frameA.png',1335.9602526238293,40078.80757871488,40078,1335.9333333333334
14,1335.98420925,40079.5262775,40079,1335.9666666666667,1336.526015,40095.78045,40095,1336.5,1338.0733834999999,40142.201505,40142,1338.0666666666666,1.8147570579312742,1,0,2,2,1,3,b'NB_20_frameB_foil.png',1339.8881405579311,40196.644216737935,40196,1339.8666666666666
15,1339.9031109999999,40197.093329999996,40197,1339.9,1340.46490075,40213.9470225,40213,1340.4333333333334,1342.01294325,40260.3882975,40260,1342.0,2.103575780056417,3,1,7,1,1,3,b'HB_1_frameB.png',1344.1165190300565,40323.495570901694,40323,1344.1
16,1344.12711425,40323.8134275,40323,1344.1,1344.6490844999998,40339.47253499999,40339,1344.6333333333334,1346.1763545,40385.290635,40385,1346.1666666666667,1.1744790135417134,2,0,3,2,1,2,b'SB_1_frameB_foil.png',1347.3508335135416,40420.52500540625,40420,1347.3333333333333
17,1347.3610072499998,40420.83021749999,40420,1347.3333333333333,1347.9429825,40438.289475,40438,1347.9333333333334,1349.490153,40484.70459,40484,1349.4666666666667,1.0921209083171561,2,0,6,1,2,2,b'SB_1_frameA_foil.png',1350.5822739083171,40517.468217249516,40517,1350.5666666666666
18,1350.5992919999999,40517.97876,40517,1350.5666666666666,1351.12107675,40533.632302499995,40533,1351.1,1352.6689265,40580.067795,40580,1352.6666666666667,1.3870068493997678,2,1,6,1,1,2,b'SB_5_frameB.png',1354.0559333493998,40621.678000481996,40621,1354.0333333333333
19,1354.072625,40622.17875,40622,1354.0666666666666,1354.634581,40639.037430000004,40639,1354.6333333333334,1356.1819282499998,40685.457847499994,40685,1356.1666666666667,1.3522950537735596,1,1,2,2,2,3,b'NB_16_frameA.png',1357.5342233037734,40726.0266991132,40726,1357.5333333333333
20,1357.55848375,40726.7545125,40726,1357.5333333333333,1358.1404135,40744.212405,40744,1358.1333333333334,1359.6875882499999,40790.6276475,40790,1359.6666666666667,1.8477227236144245,3,0,2,2,1,3,b'HB_5_frameB_foil.png',1361.5353109736143,40846.05932920843,40846,1361.5333333333333
21,1361.5425619999999,40846.27686,40846,1361.5333333333333,1362.08459625,40862.5378875,40862,1362.0666666666666,1363.611717,40908.35151,40908,1363.6,1.3166577054653317,1,1,2,2,2,3,b'NB_5_frameB.png',1364.9283747054653,40947.85124116396,40947,1364.9
22,1364.94511025,40948.3533075,40948,1364.9333333333334,1365.48691225,40964.6073675,40964,1365.4666666666667,1367.0340939999999,41011.02282,41011,1367.0333333333333,1.6810331037268043,2,1,3,2,2,2,b'SB_8_frameA.png',1368.7151271037267,41061.4538131118,41061,1368.7
23,1368.72625625,41061.7876875,41061,1368.7,1369.24808325,41077.4424975,41077,1369.2333333333333,1370.775132,41123.25396,41123,1370.7666666666667,1.683109394274652,1,1,2,2,2,3,b'NB_24_frameA.png',1372.4582413942746,41173.74724182824,41173,1372.4333333333334
24,1372.4801412499999,41174.4042375,41174,1372.4666666666667,1373.0019255,41190.057765,41190,1373.0,1374.5492625,41236.477875,41236,1374.5333333333333,1.6113785178167745,3,1,7,1,1,3,b'HB_2_frameA.png',1376.1606410178167,41284.8192305345,41284,1376.1333333333334
25,1376.178461,41285.35383,41285,1376.1666666666667,1376.6803097499999,41300.40929249999,41300,1376.6666666666667,1378.2074955,41346.224865000004,41346,1378.2,2.306079789530486,3,0,7,1,2,3,b'HB_1_frameA_foil.png',1380.5135752895305,41415.40725868592,41415,1380.5
26,1380.52038475,41415.611542499995,41415,1380.5,1381.0421597499999,41431.2647925,41431,1381.0333333333333,1382.5692622499998,41477.0778675,41477,1382.5666666666666,1.3727148189209402,2,1,2,2,2,3,b'SB_7_frameA.png',1383.9419770689208,41518.259312067625,41518,1383.9333333333334
27,1383.9639115,41518.917345,41518,1383.9333333333334,1384.5057359999998,41535.17208,41535,1384.5,1386.0328949999998,41580.986849999994,41580,1386.0,1.72170662751887,1,0,7,1,2,3,b'NB_18_frameB_foil.png',1387.7546016275187,41632.63804882556,41632,1387.7333333333333
28,1387.759668,41632.79004,41632,1387.7333333333333,1388.281559,41648.44677,41648,1388.2666666666667,1389.808938,41694.26814,41694,1389.8,2.589126984355971,3,1,2,2,2,3,b'HB_6_frameA.png',1392.3980649843559,41771.94194953068,41771,1392.3666666666666
29,1392.4167165,41772.501495,41772,1392.4,1392.9384714999999,41788.15414499999,41788,1392.9333333333334,1394.46552675,41833.9658025,41833,1394.4333333333334,1.7032226790906861,1,0,2,2,1,3,b'NB_19_frameA_foil.png',1396.1687494290907,41885.06248287272,41885,1396.1666666666667
30,1396.17757025,41885.327107499994,41885,1396.1666666666667,1396.69950075,41900.9850225,41900,1396.6666666666667,1398.226711,41946.80133,41946,1398.2,2.052293039858341,3,1,2,2,2,3,b'HB_5_frameB.png',1400.2790040398584,42008.37012119575,42008,1400.2666666666667
31,1400.2996524999999,42008.989575,42008,1400.2666666666667,1400.861517,42025.84551,42025,1400.8333333333333,1402.38884175,42071.6652525,42071,1402.3666666666666,1.2583560585044324,3,0,7,1,2,3,b'HB_1_frameA_foil.png',1403.6471978085044,42109.415934255136,42109,1403.6333333333334
32,1403.6703209999998,42110.10962999999,42110,1403.6666666666667,1404.21213975,42126.3641925,42126,1404.2,1405.7392375,42172.177125,42172,1405.7333333333333,1.8020364440744743,1,1,2,2,2,3,b'NB_8_frameA.png',1407.5412739440744,42226.238218322236,42226,1407.5333333333333
33,1407.550974,42226.52922,42226,1407.5333333333333,1408.0526814999998,42241.58044499999,42241,1408.0333333333333,1409.5804652499999,42287.41395749999,42287,1409.5666666666666,1.5557592359837145,1,1,7,1,1,3,b'NB_30_frameA.png',1411.1362244859836,42334.086734579505,42334,1411.1333333333334
34,1411.15074975,42334.5224925,42334,1411.1333333333334,1411.6725294999999,42350.175885,42350,1411.6666666666667,1413.21967625,42396.5902875,42396,1413.2,1.5066290764370933,1,1,2,2,2,3,b'NB_27_frameB.png',1414.7263053264371,42441.789159793116,42441,1414.7
35,1414.7430379999998,42442.291139999994,42442,1414.7333333333333,1415.30513825,42459.1541475,42459,1415.3,1416.853189,42505.595669999995,42505,1416.8333333333333,1.2516562774544582,1,0,7,1,2,3,b'NB_24_frameB_foil.png',1418.1048452774544,42543.14535832363,42543,1418.1
36,1418.12517725,42543.7553175,42543,1418.1,1418.64691025,42559.4073075,42559,1418.6333333333334,1420.1740634999999,42605.221905,42605,1420.1666666666667,1.6845700641861185,2,0,2,2,1,3,b'SB_6_frameA_foil.png',1421.858633564186,42655.75900692558,42655,1421.8333333333333
37,1421.87311725,42656.193517499996,42656,1421.8666666666666,1422.37490375,42671.2471125,42671,1422.3666666666666,1423.9020027499998,42717.06008249999,42717,1423.9,1.8409165566554293,3,0,2,2,1,3,b'HB_2_frameB_foil.png',1425.7429193066553,42772.287579199656,42772,1425.7333333333333
38,1425.76313175,42772.8939525,42772,1425.7333333333333,1426.30495825,42789.1487475,42789,1426.3,1427.8320979999999,42834.96294,42834,1427.8,1.271176505717449,2,1,2,2,2,3,b'SB_3_frameB.png',1429.1032745057173,42873.09823517152,42873,1429.1
39,1429.1118365,42873.355095,42873,1429.1,1429.6938042499999,42890.814127499994,42890,1429.6666666666667,1431.24171275,42937.2513825,42937,1431.2333333333333,1.561061729094945,1,0,7,1,2,3,b'NB_11_frameA_foil.png',1432.802774479095,42984.08323437285,42984,1432.8
40,1432.8113055,42984.339165,42984,1432.8,1433.3731779999998,43001.19533999999,43001,1433.3666666666666,1434.900391,43047.01173,43047,1434.9,1.689127640449442,1,0,7,1,2,3,b'NB_15_frameA_foil.png',1436.5895186404493,43097.68555921348,43097,1436.5666666666666
41,1436.601526,43098.04578,43098,1436.6,1437.1634205,43114.902615,43114,1437.1333333333334,1438.6907065,43160.721195,43160,1438.6666666666667,1.779631384066306,3,0,2,2,1,3,b'HB_9_frameA_foil.png',1440.4703378840663,43214.11013652199,43214,1440.4666666666667
42,1440.48985225,43214.6955675,43214,1440.4666666666667,1441.0316692499998,43230.9500775,43230,1441.0,1442.57884225,43277.3652675,43277,1442.5666666666666,1.44618232245557,2,1,7,1,1,3,b'SB_4_frameA.png',1444.0250245724555,43320.750737173665,43320,1444.0
43,1444.0342652499999,43321.027957499995,43321,1444.0333333333333,1444.5560819999998,43336.682459999996,43336,1444.5333333333333,1446.0832675,43382.498025,43382,1446.0666666666666,1.29477761418093,2,1,7,1,1,3,b'SB_6_frameB.png',1447.3780451141808,43421.34135342543,43421,1447.3666666666666
44,1447.3999995,43421.999984999995,43421,1447.3666666666666,1447.921766,43437.65298,43437,1447.9,1449.46892475,43484.0677425,43484,1449.4666666666667,1.8760394863784313,1,0,7,1,2,3,b'NB_23_frameA_foil.png',1451.3449642363785,43540.348927091356,43540,1451.3333333333333
45,1451.3691697499999,43541.075092499996,43541,1451.3666666666666,1451.891185,43556.73555,43556,1451.8666666666666,1453.4183635,43602.550905,43602,1453.4,1.5799770824378356,2,0,7,1,2,3,b'SB_6_frameB_foil.png',1454.9983405824378,43649.95021747313,43649,1454.9666666666667
46,1455.0090472499999,43650.27141749999,43650,1455.0,1455.550831,43666.52493,43666,1455.5333333333333,1457.0780344999998,43712.341035,43712,1457.0666666666666,1.3386721771676093,1,1,2,2,2,3,b'NB_29_frameB.png',1458.4167066771674,43752.501200315026,43752,1458.4
47,1458.4251395,43752.754185,43752,1458.4,1458.92732125,43767.8196375,43767,1458.9,1460.4544294999998,43813.63288499999,43813,1460.4333333333334,0.6102308369008824,3,0,7,1,2,3,b'HB_9_frameB_foil.png',1461.0646603369007,43831.93981010702,43831,1461.0333333333333
48,1461.08467425,43832.5402275,43832,1461.0666666666666,1461.6064394999999,43848.193185,43848,1461.6,1463.1535562499998,43894.606687499996,43894,1463.1333333333334,1.6667415861738846,1,1,2,2,2,3,b'NB_3_frameB.png',1464.8202978361737,43944.60893508521,43944,1464.8
49,1464.8409844999999,43945.229535,43945,1464.8333333333333,1465.40283725,43962.0851175,43962,1465.4,1466.93016275,44007.9048825,44007,1466.9,1.607714630663395,2,1,7,1,1,3,b'SB_4_frameB.png',1468.5378773806633,44056.1363214199,44056,1468.5333333333333
50,1468.55970575,44056.7911725,44056,1468.5333333333333,1469.14156575,44074.2469725,44074,1469.1333333333334,1470.6688622499998,44120.065867499994,44120,1470.6666666666667,1.3425877392292023,2,0,7,1,2,3,b'SB_7_frameA_foil.png',1472.011449989229,44160.34349967687,44160,1472.0
51,1472.02905975,44160.8717925,44160,1472.0,1472.5909935,44177.729804999995,44177,1472.5666666666666,1474.11817,44223.545099999996,44223,1474.1,1.7375911148265004,1,1,2,2,2,3,b'NB_28_frameA.png',1475.8557611148265,44275.67283344479,44275,1475.8333333333333
52,1475.870757,44276.122709999996,44276,1475.8666666666666,1476.43261225,44292.9783675,44292,1476.4,1477.9598374999998,44338.795125,44338,1477.9333333333334,1.8334565543336794,1,1,7,1,1,3,b'NB_26_frameA.png',1479.7932940543335,44393.79882163001,44393,1479.7666666666667
53,1479.802207,44394.06621,44394,1479.8,1480.36410475,44410.9231425,44410,1480.3333333333333,1481.8913404999998,44456.740215,44456,1481.8666666666666,1.2672813551034778,2,0,7,1,2,3,b'SB_1_frameA_foil.png',1483.1586218551033,44494.7586556531,44494,1483.1333333333334
54,1483.17516175,44495.254852499995,44495,1483.1666666666667,1483.7169462499999,44511.5083875,44511,1483.7,1485.2443537499998,44557.330612499994,44557,1485.2333333333333,0.7813917421735823,2,1,2,2,2,3,b'SB_2_frameA.png',1486.0257454921734,44580.7723647652,44580,1486.0
55,1486.03078325,44580.9234975,44580,1486.0,1486.59282575,44597.7847725,44597,1486.5666666666666,1488.14003975,44644.2011925,44644,1488.1333333333334,1.5000874975230545,1,0,2,2,1,3,b'NB_21_frameA_foil.png',1489.640127247523,44689.20381742569,44689,1489.6333333333334
56,1489.6617327499998,44689.8519825,44689,1489.6333333333334,1490.223812,44706.71436,44706,1490.2,1491.7509905,44752.529715,44752,1491.7333333333333,1.2429147406946868,1,0,7,1,2,3,b'NB_8_frameB_foil.png',1492.9939052406946,44789.81715722084,44789,1492.9666666666667
57,1493.004767,44790.14301,44790,1493.0,1493.54658925,44806.3976775,44806,1493.5333333333333,1495.0937717499999,44852.8131525,44852,1495.0666666666666,1.1195813501253724,2,0,7,1,2,3,b'SB_4_frameA_foil.png',1496.2133531001252,44886.40059300376,44886,1496.2
58,1496.23172125,44886.9516375,44886,1496.2,1496.7735384999999,44903.20615499999,44903,1496.7666666666667,1498.3007249999998,44949.02174999999,44949,1498.3,1.6905367895960808,3,1,2,2,2,3,b'HB_1_frameB.png',1499.991261789596,44999.737853687875,44999,1499.9666666666667
59,1500.0142035,45000.426105,45000,1500.0,1500.53591725,45016.0775175,45016,1500.5333333333333,1502.063164,45061.89492,45061,1502.0333333333333,1.4224958471022546,1,1,2,2,2,3,b'NB_22_frameA.png',1503.4856598471022,45104.56979541307,45104,1503.4666666666667
60,1503.5032589999998,45105.09776999999,45105,1503.5,1504.0051525,45120.15457499999,45120,1504.0,1505.5322777499998,45165.96833249999,45165,1505.5,2.1315890193218365,3,1,7,1,1,3,b'HB_8_frameB.png',1507.6638667693217,45229.91600307965,45229,1507.6333333333334
61,1507.6883874999999,45230.651625,45230,1507.6666666666667,1508.230216,45246.90648,45246,1508.2,1509.757243,45292.71729,45292,1509.7333333333333,1.6790412592235953,2,0,7,1,2,3,b'SB_5_frameB_foil.png',1511.4362842592236,45343.08852777671,45343,1511.4333333333334
62,1511.4413815,45343.241445,45343,1511.4333333333334,1511.9432252499998,45358.29675749999,45358,1511.9333333333334,1513.49040375,45404.7121125,45404,1513.4666666666667,2.1673966152593493,3,1,7,1,1,3,b'HB_1_frameA.png',1515.6578003652594,45469.73401095778,45469,1515.6333333333334
63,1515.6721559999999,45470.164679999994,45470,1515.6666666666667,1516.1940647499998,45485.82194249999,45485,1516.1666666666667,1517.7212177499998,45531.63653249999,45531,1517.7,1.9532174679916352,2,1,7,1,1,3,b'SB_3_frameA.png',1519.6744352179915,45590.23305653974,45590,1519.6666666666667
64,1519.6936564999999,45590.809694999996,45590,1519.6666666666667,1520.19532875,45605.8598625,45605,1520.1666666666667,1521.72249825,45651.674947499996,45651,1521.7,1.5701865096343681,2,0,2,2,1,3,b'SB_9_frameB_foil.png',1523.2926847596343,45698.78054278903,45698,1523.2666666666667
65,1523.3075267499999,45699.2258025,45699,1523.3,1523.849364,45715.480919999995,45715,1523.8333333333333,1525.37656625,45761.2969875,45761,1525.3666666666666,1.4810121103655547,2,1,2,2,2,3,b'SB_1_frameB.png',1526.8575783603656,45805.727350810965,45805,1526.8333333333333
66,1526.86585425,45805.975627499996,45805,1526.8333333333333,1527.36754725,45821.0264175,45821,1527.3666666666666,1528.89472,45866.8416,45866,1528.8666666666666,1.599834457738325,2,0,2,2,1,3,b'SB_8_frameA_foil.png',1530.4945544577383,45914.83663373215,45914,1530.4666666666667
67,1530.50845775,45915.2537325,45915,1530.5,1531.07035625,45932.110687500004,45932,1531.0666666666666,1532.59816525,45977.944957499996,45977,1532.5666666666666,1.0759239445906132,2,1,2,2,2,3,b'SB_5_frameA.png',1533.6740891945906,46010.222675837715,46010,1533.6666666666667
68,1533.6893495,46010.680485,46010,1533.6666666666667,1534.251354,46027.54062,46027,1534.2333333333333,1535.77852375,46073.3557125,46073,1535.7666666666667,1.321556868730113,1,0,2,2,1,3,b'NB_9_frameA_foil.png',1537.10008061873,46113.002418561904,46113,1537.1
69,1537.112238,46113.367139999995,46113,1537.1,1537.67414325,46130.224297500004,46130,1537.6666666666667,1539.2012965,46176.038895,46176,1539.2,0.8578841376584023,3,1,7,1,1,3,b'HB_4_frameB.png',1540.0591806376583,46201.77541912975,46201,1540.0333333333333
70,1540.0839099999998,46202.51729999999,46202,1540.0666666666666,1540.6660642499999,46219.9819275,46219,1540.6333333333334,1542.21348425,46266.404527499995,46266,1542.2,1.696970465942286,3,1,2,2,2,3,b'HB_4_frameB.png',1543.9104547159423,46317.313641478264,46317,1543.9
71,1543.920899,46317.62697,46317,1543.9,1544.44119,46333.2357,46333,1544.4333333333334,1545.9884455,46379.653365,46379,1545.9666666666667,1.5312288698041812,1,0,7,1,2,3,b'NB_12_frameB_foil.png',1547.519674369804,46425.590231094124,46425,1547.5
72,1547.5437355,46426.312065,46426,1547.5333333333333,1548.045437,46441.36311,46441,1548.0333333333333,1549.572624,46487.178719999996,46487,1549.5666666666666,1.0910923110786825,1,1,2,2,2,3,b'NB_25_frameB.png',1550.6637163110786,46519.91148933236,46519,1550.6333333333334
73,1550.68419025,46520.5257075,46520,1550.6666666666667,1551.2661497499998,46537.98449249999,46537,1551.2333333333333,1552.7933225,46583.799674999995,46583,1552.7666666666667,1.724474968505092,2,1,2,2,2,3,b'SB_2_frameA.png',1554.517797468505,46635.53392405515,46635,1554.5
74,1554.539053,46636.17159,46636,1554.5333333333333,1555.1208855,46653.626565,46653,1555.1,1556.6483242499999,46699.449727499996,46699,1556.6333333333334,1.3571281711338088,1,0,7,1,2,3,b'NB_17_frameA_foil.png',1558.0054524211337,46740.16357263401,46740,1558.0
75,1558.03015175,46740.9045525,46740,1558.0,1558.571992,46757.159759999995,46757,1558.5666666666666,1560.0992107499999,46802.9763225,46802,1560.0666666666666,2.221684686257504,3,0,7,1,2,3,b'HB_6_frameB_foil.png',1562.3208954362574,46869.626863087724,46869,1562.3
76,1562.3356179999998,46870.06853999999,46870,1562.3333333333333,1562.9177324999998,46887.531975,46887,1562.9,1564.4448575,46933.345725,46933,1564.4333333333334,1.375680687604472,1,1,2,2,2,3,b'NB_7_frameB.png',1565.8205381876044,46974.61614562813,46974,1565.8
77,1565.843778,46975.31334,46975,1565.8333333333333,1566.3655505,46990.966515,46990,1566.3333333333333,1567.9126709999998,47037.38013,47037,1567.9,1.5238148905336857,3,0,2,2,1,3,b'HB_8_frameA_foil.png',1569.4364858905335,47083.09457671601,47083,1569.4333333333334
78,1569.4591859999998,47083.775579999994,47083,1569.4333333333334,1569.9809395,47099.428185,47099,1569.9666666666667,1571.5281185,47145.843555,47145,1571.5,1.5156987432856113,2,0,7,1,2,3,b'SB_3_frameA_foil.png',1573.0438172432855,47191.31451729857,47191,1573.0333333333333
79,1573.0663789999999,47191.991369999996,47191,1573.0333333333333,1573.64832975,47209.44989249999,47209,1573.6333333333334,1575.176131,47255.28393,47255,1575.1666666666667,2.1567805021768436,3,0,7,1,2,3,b'HB_1_frameB_foil.png',1577.3329115021768,47319.9873450653,47319,1577.3
80,1577.34672275,47320.4016825,47320,1577.3333333333333,1577.86851,47336.0553,47336,1577.8666666666666,1579.3955697499998,47381.8670925,47381,1579.3666666666666,1.33011639630422,3,0,7,1,2,3,b'HB_7_frameA_foil.png',1580.725686146304,47421.77058438912,47421,1580.7
81,1580.74534525,47422.360357499994,47422,1580.7333333333333,1581.246922,47437.407660000004,47437,1581.2333333333333,1582.794234,47483.82702,47483,1582.7666666666667,1.271451581036672,2,0,7,1,2,3,b'SB_2_frameA_foil.png',1584.0656855810366,47521.9705674311,47521,1584.0333333333333
82,1584.081675,47522.450249999994,47522,1584.0666666666666,1584.58332825,47537.4998475,47537,1584.5666666666666,1586.1104,47583.312,47583,1586.1,1.4729316676966846,2,1,2,2,2,3,b'SB_8_frameB.png',1587.5833316676967,47627.4999500309,47627,1587.5666666666666
83,1587.5945445,47627.836335,47627,1587.5666666666666,1588.1162689999999,47643.48807,47643,1588.1,1589.6634709999998,47689.904129999995,47689,1589.6333333333334,1.487493769149296,2,1,7,1,1,3,b'SB_1_frameA.png',1591.1509647691491,47734.528943074474,47734,1591.1333333333334
84,1591.172652,47735.17956,47735,1591.1666666666667,1591.73453925,47752.0361775,47752,1591.7333333333333,1593.28242325,47798.4726975,47798,1593.2666666666667,1.7444694420555606,1,1,2,2,2,3,b'NB_6_frameA.png',1595.0268926920555,47850.80678076167,47850,1595.0
85,1595.0482312499998,47851.4469375,47851,1595.0333333333333,1595.6102764999998,47868.308294999995,47868,1595.6,1597.1574515,47914.723545,47914,1597.1333333333334,1.4961925313109532,2,0,7,1,2,3,b'SB_4_frameA_foil.png',1598.653644031311,47959.60932093933,47959,1598.6333333333334
86,1598.67240425,47960.1721275,47960,1598.6666666666667,1599.1941964999999,47975.825894999994,47975,1599.1666666666667,1600.72149625,48021.6448875,48021,1600.7,2.283742468804121,3,0,2,2,1,3,b'HB_5_frameA_foil.png',1603.005238718804,48090.15716156412,48090,1603.0
87,1603.025834,48090.77502,48090,1603.0,1603.52751575,48105.8254725,48105,1603.5,1605.0746977499998,48152.2409325,48152,1605.0666666666666,1.6999678961001337,2,1,7,1,1,3,b'SB_6_frameB.png',1606.7746656461,48203.239969383,48203,1606.7666666666667
88,1606.7963065,48203.889194999996,48203,1606.7666666666667,1607.3180685,48219.542055,48219,1607.3,1608.8652559999998,48265.95767999999,48265,1608.8333333333333,2.505111540784128,3,0,7,1,2,3,b'HB_4_frameA_foil.png',1611.370367540784,48341.111026223516,48341,1611.3666666666666
89,1611.387191,48341.61573,48341,1611.3666666666666,1611.9691739999998,48359.07522,48359,1611.9666666666667,1613.5365015,48406.095045,48406,1613.5333333333333,2.2189830489223823,3,0,7,1,2,3,b'HB_4_frameA_foil.png',1615.7554845489224,48472.66453646767,48472,1615.7333333333333
90,1615.77807175,48473.3421525,48473,1615.7666666666667,1616.2797495,48488.392485,48488,1616.2666666666667,1617.82681325,48534.8043975,48534,1617.8,1.5017737478483468,2,0,6,1,2,2,b'SB_2_frameB_foil.png',1619.3285869978483,48579.85760993545,48579,1619.3
91,1619.3462829999999,48580.38849,48580,1619.3333333333333,1619.8479485,48595.438455,48595,1619.8333333333333,1621.37538825,48641.2616475,48641,1621.3666666666666,1.7423711806768551,3,0,7,1,2,3,b'HB_6_frameB_foil.png',1623.1177594306769,48693.53278292031,48693,1623.1
92,1623.1340585,48694.021755,48694,1623.1333333333334,1623.6558022499999,48709.6740675,48709,1623.6333333333334,1625.2037415,48756.112245,48756,1625.2,1.8015209168661386,1,0,7,1,2,3,b'NB_16_frameB_foil.png',1627.0052624168661,48810.15787250598,48810,1627.0
93,1627.010754,48810.32262,48810,1627.0,1627.59283775,48827.7851325,48827,1627.5666666666666,1629.1400035,48874.200104999996,48874,1629.1333333333334,1.5002179087605327,2,1,2,2,2,3,b'SB_5_frameA.png',1630.6402214087605,48919.20664226281,48919,1630.6333333333334
94,1630.65727225,48919.7181675,48919,1630.6333333333334,1631.1588175,48934.764525,48934,1631.1333333333334,1632.70612175,48981.183652499996,48981,1632.7,1.6781304109608755,1,1,7,1,1,3,b'NB_20_frameA.png',1634.3842521609608,49031.52756482882,49031,1634.3666666666666
95,1634.3946342499999,49031.8390275,49031,1634.3666666666666,1634.93647225,49048.0941675,49048,1634.9333333333334,1636.484043,49094.52129,49094,1636.4666666666667,1.3577445439295843,1,1,2,2,2,3,b'NB_15_frameB.png',1637.8417875439295,49135.253626317884,49135,1637.8333333333333
96,1637.8471204999998,49135.413615,49135,1637.8333333333333,1638.3890795,49151.672385,49151,1638.3666666666666,1639.916219,49197.48657,49197,1639.9,1.3780436494853348,1,0,6,1,2,2,b'NB_22_frameB_foil.png',1641.2942626494853,49238.82787948456,49238,1641.2666666666667
97,1641.3097065,49239.291195,49239,1641.3,1641.8519535,49255.558605,49255,1641.8333333333333,1643.3789534999999,49301.368604999996,49301,1643.3666666666666,1.817405866808258,2,1,2,2,2,3,b'SB_4_frameB.png',1645.196359366808,49355.890781004244,49355,1645.1666666666667
98,1645.2090457499999,49356.27137249999,49356,1645.2,1645.791516,49373.74548,49373,1645.7666666666667,1647.3394597499998,49420.18379249999,49420,1647.3333333333333,1.8062707023927942,3,0,6,1,2,2,b'HB_3_frameA_foil.png',1649.1457304523926,49474.37191357178,49474,1649.1333333333334
99,1649.16760175,49475.0280525,49475,1649.1666666666667,1649.7497875,49492.493624999996,49492,1649.7333333333333,1651.276915,49538.30745,49538,1651.2666666666667,1.5206674821674824,3,1,2,2,2,3,b'HB_6_frameA.png',1652.7975824821674,49583.927474465025,49583,1652.7666666666667
100,1652.8041167499998,49584.12350249999,49584,1652.8,1653.36601275,49600.9803825,49600,1653.3333333333333,1654.9134904999999,49647.404715,49647,1654.9,1.071409435593523,1,0,6,1,2,2,b'NB_13_frameA_foil.png',1655.9848999355934,49679.5469980678,49679,1655.9666666666667
101,1656.0067482499999,49680.20244749999,49680,1656.0,1656.5886779999998,49697.660339999995,49697,1656.5666666666666,1658.13587925,49744.0763775,49744,1658.1333333333334,1.6173870068741962,3,1,7,1,1,3,b'HB_8_frameB.png',1659.7532662568742,49792.59798770623,49792,1659.7333333333333
102,1659.768857,49793.06571,49793,1659.7666666666667,1660.3508215,49810.524645,49810,1660.3333333333333,1661.8779607499998,49856.338822499994,49856,1661.8666666666666,1.8948797557968646,1,1,7,1,1,3,b'NB_10_frameA.png',1663.7728405057967,49913.1852151739,49913,1663.7666666666667
103,1663.781524,49913.44572,49913,1663.7666666666667,1664.303283,49929.09849,49929,1664.3,1665.83041525,49974.9124575,49974,1665.8,0.9296056401217356,2,0,2,2,1,3,b'SB_2_frameA_foil.png',1666.7600208901217,50002.800626703654,50002,1666.7333333333333
104,1666.7788575,50003.365724999996,50003,1666.7666666666667,1667.32069525,50019.6208575,50019,1667.3,1668.8680115,50066.040345,50066,1668.8666666666666,1.035877848509699,1,1,2,2,2,3,b'NB_1_frameB.png',1669.9038893485097,50097.11668045529,50097,1669.9
105,1669.9155074999999,50097.46522499999,50097,1669.9,1670.477384,50114.32152,50114,1670.4666666666667,1672.02458975,50160.7376925,50160,1672.0,1.5661022482672706,2,1,2,2,2,3,b'SB_2_frameB.png',1673.5906919982672,50207.72075994802,50207,1673.5666666666666
106,1673.6016455,50208.049365,50208,1673.6,1674.18357675,50225.507302499995,50225,1674.1666666666667,1675.7114037499998,50271.342112499995,50271,1675.7,1.760881556198001,1,0,7,1,2,3,b'NB_5_frameA_foil.png',1677.4722853061978,50324.168559185935,50324,1677.4666666666667
107,1677.48917625,50324.675287499995,50324,1677.4666666666667,1678.07114175,50342.1342525,50342,1678.0666666666666,1679.5983305,50387.949915,50387,1679.5666666666666,1.2258931653341278,1,0,2,2,1,3,b'NB_2_frameB_foil.png',1680.824223665334,50424.72670996002,50424,1680.8
108,1680.8325419999999,50424.976259999996,50424,1680.8,1681.394458,50441.83374,50441,1681.3666666666666,1682.9215634999998,50487.646904999994,50487,1682.9,2.1274109742371365,3,1,2,2,2,3,b'HB_2_frameA.png',1685.048974474237,50551.46923422711,50551,1685.0333333333333
109,1685.069628,50552.08884,50552,1685.0666666666666,1685.57137225,50567.1411675,50567,1685.5666666666666,1687.1185165,50613.555495,50613,1687.1,1.8675275997957215,3,0,7,1,2,3,b'HB_1_frameA_foil.png',1688.9860440997957,50669.58132299387,50669,1688.9666666666667
110,1688.99438825,50669.831647499996,50669,1688.9666666666667,1689.5363519999999,50686.09056,50686,1689.5333333333333,1691.0835499999998,50732.506499999996,50732,1691.0666666666666,1.900395259144716,3,0,7,1,2,3,b'HB_7_frameB_foil.png',1692.9839452591445,50789.51835777434,50789,1692.9666666666667
111,1692.9962905,50789.888715,50789,1692.9666666666667,1693.59834375,50807.9503125,50807,1693.5666666666666,1695.12610125,50853.7830375,50853,1695.1,1.1291212760843337,2,0,7,1,2,3,b'SB_5_frameA_foil.png',1696.2552225260843,50887.65667578253,50887,1696.2333333333333
112,1696.271877,50888.15631,50888,1696.2666666666667,1696.7934285,50903.802854999994,50903,1696.7666666666667,1698.32074875,50949.622462499996,50949,1698.3,1.525732743786648,2,1,2,2,2,3,b'SB_2_frameA.png',1699.8464814937865,50995.394444813595,50995,1699.8333333333333
113,1699.86944875,50996.0834625,50996,1699.8666666666666,1700.411298,51012.33894,51012,1700.4,1701.9583867499998,51058.75160249999,51058,1701.9333333333334,1.8455280349589884,2,1,2,2,2,3,b'SB_9_frameA.png',1703.8039147849588,51114.11744354876,51114,1703.8
114,1703.81220575,51114.3661725,51114,1703.8,1704.39460025,51131.838007499995,51131,1704.3666666666666,1705.94251225,51178.2753675,51178,1705.9333333333334,1.0665519261965528,2,0,7,1,2,3,b'SB_4_frameB_foil.png',1707.0090641761965,51210.271925285895,51210,1707.0
115,1707.02850825,51210.855247499996,51210,1707.0,1707.5301725,51225.905175,51225,1707.5,1709.07745325,51272.3235975,51272,1709.0666666666666,2.2442058983724564,3,0,2,2,1,3,b'HB_3_frameB_foil.png',1711.3216591483724,51339.64977445117,51339,1711.3
116,1711.32923325,51339.8769975,51339,1711.3,1711.85101625,51355.5304875,51355,1711.8333333333333,1713.39819025,51401.945707499995,51401,1713.3666666666666,1.4985098303295672,2,0,7,1,2,3,b'SB_7_frameB_foil.png',1714.8967000803295,51446.90100240988,51446,1714.8666666666666
117,1714.9153092499998,51447.4592775,51447,1714.9,1715.4370239999998,51463.11072,51463,1715.4333333333334,1716.9643979999998,51508.931939999995,51508,1716.9333333333334,1.2872509377775714,2,1,7,1,1,3,b'SB_1_frameA.png',1718.2516489377774,51547.54946813332,51547,1718.2333333333333
118,1718.25957675,51547.7873025,51547,1718.2333333333333,1718.781274,51563.43822,51563,1718.7666666666667,1720.30866825,51609.2600475,51609,1720.3,2.107652409002185,3,1,7,1,1,3,b'HB_2_frameB.png',1722.4163206590022,51672.489619770065,51672,1722.4
119,1722.4331925,51672.995774999996,51672,1722.4,1722.9749935,51689.249805,51689,1722.9666666666667,1724.5020104999999,51735.060314999995,51735,1724.5,1.550368093769066,1,0,7,1,2,3,b'NB_30_frameB_foil.png',1726.052378593769,51781.57135781307,51781,1726.0333333333333
120,1726.07428775,51782.228632499995,51782,1726.0666666666666,1726.636174,51799.08522,51799,1726.6333333333334,1728.183339,51845.50017,51845,1728.1666666666667,1.6707380244042724,2,0,7,1,2,3,b'SB_1_frameA_foil.png',1729.8540770244042,51895.62231073213,51895,1729.8333333333333
121,1729.8731819999998,51896.195459999995,51896,1729.8666666666666,1730.4149352499999,51912.4480575,51912,1730.4,1731.9621949999998,51958.865849999995,51958,1731.9333333333334,1.938387744827196,3,0,2,2,1,3,b'HB_6_frameA_foil.png',1733.900582744827,52017.01748234481,52017,1733.9
122,1733.9243367499998,52017.7301025,52017,1733.9,1734.46616,52033.9848,52033,1734.4333333333334,1735.9933267499998,52079.7998025,52079,1735.9666666666667,1.5475152474828064,2,0,7,1,2,3,b'SB_6_frameA_foil.png',1737.5408419974826,52126.22525992448,52126,1737.5333333333333
123,1737.56279025,52126.883707500005,52126,1737.5333333333333,1738.084551,52142.53653,52142,1738.0666666666666,1739.61220775,52188.3662325,52188,1739.6,1.1841322067193687,2,0,7,1,2,3,b'SB_2_frameB_foil.png',1740.7963399567193,52223.89019870158,52223,1740.7666666666667
124,1740.82019025,52224.6057075,52224,1740.8,1741.3619939999999,52240.85982,52240,1741.3333333333333,1742.88975725,52286.6927175,52286,1742.8666666666666,2.3019078015349805,3,1,7,1,1,3,b'HB_6_frameB.png',1745.191665051535,52355.74995154605,52355,1745.1666666666667
125,1745.19880825,52355.9642475,52355,1745.1666666666667,1745.7206752499999,52371.6202575,52371,1745.7,1747.248335,52417.45005,52417,1747.2333333333333,1.6182457983959466,2,0,2,2,1,3,b'SB_9_frameA_foil.png',1748.866580798396,52465.99742395188,52465,1748.8333333333333
126,1748.88701225,52466.6103675,52466,1748.8666666666666,1749.46912875,52484.0738625,52484,1749.4666666666667,1751.01690925,52530.5072775,52530,1751.0,1.8597140042111278,3,1,7,1,1,3,b'HB_3_frameB.png',1752.8766232542112,52586.298697626335,52586,1752.8666666666666
127,1752.8822472499999,52586.4674175,52586,1752.8666666666666,1753.42408,52602.7224,52602,1753.4,1754.95175225,52648.5525675,52648,1754.9333333333334,1.2085110103944317,3,0,7,1,2,3,b'HB_1_frameB_foil.png',1756.1602632603945,52684.807897811836,52684,1756.1333333333334
128,1756.17199175,52685.159752499996,52685,1756.1666666666667,1756.673752,52700.21256,52700,1756.6666666666667,1758.20159875,52746.0479625,52746,1758.2,1.6631480293581262,2,0,7,1,2,3,b'SB_1_frameB_foil.png',1759.864746779358,52795.942403380745,52795,1759.8333333333333
129,1759.8770487499999,52796.311462499994,52796,1759.8666666666666,1760.4590329999999,52813.77099,52813,1760.4333333333334,1762.0073109999998,52860.21932999999,52860,1762.0,1.783965166308917,3,0,7,1,2,3,b'HB_3_frameB_foil.png',1763.7912761663088,52913.73828498926,52913,1763.7666666666667
130,1763.80890675,52914.2672025,52914,1763.8,1764.39082825,52931.724847499994,52931,1764.3666666666666,1765.9184779999998,52977.554339999995,52977,1765.9,2.728922837646678,3,1,2,2,2,3,b'HB_3_frameA.png',1768.6474008376465,53059.422025129395,53059,1768.6333333333334
131,1768.67026425,53060.1079275,53060,1768.6666666666667,1769.2522354999999,53077.567064999996,53077,1769.2333333333333,1770.78002425,53123.4007275,53123,1770.7666666666667,1.2451332177734002,2,0,7,1,2,3,b'SB_2_frameB_foil.png',1772.0251574677734,53160.7547240332,53160,1772.0
132,1772.0403585,53161.210755,53161,1772.0333333333333,1772.602254,53178.067619999994,53178,1772.6,1774.12986325,53223.8958975,53223,1774.1,1.4732118028914556,1,1,2,2,2,3,b'NB_17_frameB.png',1775.6030750528914,53268.09225158674,53268,1775.6
133,1775.6145904999998,53268.43771499999,53268,1775.6,1776.1564409999999,53284.69323,53284,1776.1333333333334,1777.7042205,53331.126615,53331,1777.7,1.7495760809397325,1,1,2,2,2,3,b'NB_2_frameA.png',1779.4537965809398,53383.61389742819,53383,1779.4333333333334
134,1779.46799475,53384.039842499995,53384,1779.4666666666667,1780.04997025,53401.4991075,53401,1780.0333333333333,1781.5973944999998,53447.921834999994,53447,1781.5666666666666,1.9151495926780626,1,1,7,1,1,3,b'NB_11_frameB.png',1783.512544092678,53505.376322780336,53505,1783.5
135,1783.5267665,53505.802995,53505,1783.5,1784.04851375,53521.4554125,53521,1784.0333333333333,1785.5763574999999,53567.290725,53567,1785.5666666666666,1.466789318365045,1,0,2,2,1,3,b'NB_7_frameA_foil.png',1787.043146818365,53611.29440455095,53611,1787.0333333333333
136,1787.0514635,53611.543905,53611,1787.0333333333333,1787.613469,53628.40407,53628,1787.6,1789.1407895,53674.223685,53674,1789.1333333333334,1.8966245575575158,1,0,2,2,1,3,b'NB_4_frameB_foil.png',1791.0374140575575,53731.12242172672,53731,1791.0333333333333
137,1791.05816125,53731.7448375,53731,1791.0333333333333,1791.6402765,53749.208295000004,53749,1791.6333333333334,1793.1673845,53795.021535,53795,1793.1666666666667,1.1480247476138175,1,0,7,1,2,3,b'NB_26_frameB_foil.png',1794.3154092476138,53829.462277428414,53829,1794.3
138,1794.3213577499998,53829.6407325,53829,1794.3,1794.883253,53846.49759,53846,1794.8666666666666,1796.4103785,53892.311355,53892,1796.4,1.1707167127169669,1,0,2,2,1,3,b'NB_6_frameB_foil.png',1797.581095212717,53927.43285638151,53927,1797.5666666666666
139,1797.6050042499999,53928.1501275,53928,1797.6,1798.20718825,53946.2156475,53946,1798.2,1799.734438,53992.03314,53992,1799.7333333333333,1.7123697119532153,1,1,7,1,1,3,b'NB_18_frameA.png',1801.4468077119532,54043.404231358596,54043,1801.4333333333334
140,1801.45360825,54043.6082475,54043,1801.4333333333334,1801.97544025,54059.2632075,54059,1801.9666666666667,1803.50259525,54105.0778575,54105,1803.5,1.6836601475952193,1,0,7,1,2,3,b'NB_1_frameA_foil.png',1805.1862553975952,54155.58766192786,54155,1805.1666666666667
141,1805.2055752499998,54156.1672575,54156,1805.2,1805.747261,54172.41783,54172,1805.7333333333333,1807.2746885,54218.240654999994,54218,1807.2666666666667,1.5772169658448547,1,0,7,1,2,3,b'NB_28_frameB_foil.png',1808.8519054658448,54265.55716397534,54265,1808.8333333333333
142,1808.8761815,54266.285445,54266,1808.8666666666666,1809.4382107499998,54283.1463225,54283,1809.4333333333334,1810.9654209999999,54328.962629999995,54328,1810.9333333333334,1.0899970246246085,1,0,7,1,2,3,b'NB_14_frameB_foil.png',1812.0554180246245,54361.66254073873,54361,1812.0333333333333
143,1812.0734304999999,54362.202914999994,54362,1812.0666666666666,1812.65537875,54379.661362499995,54379,1812.6333333333334,1814.20254875,54426.0764625,54426,1814.2,1.331882816273719,2,0,2,2,1,3,b'SB_3_frameB_foil.png',1815.5344315662737,54466.03294698821,54466,1815.5333333333333
144,1815.558791,54466.76373,54466,1815.5333333333333,1816.08055475,54482.4166425,54482,1816.0666666666666,1817.607704,54528.23112,54528,1817.6,1.7178039542632177,3,1,2,2,2,3,b'HB_1_frameA.png',1819.3255079542632,54579.76523862789,54579,1819.3
145,1819.3304807499999,54579.9144225,54579,1819.3,1819.87251825,54596.1755475,54596,1819.8666666666666,1821.40033,54642.0099,54642,1821.4,1.2625841895351186,3,1,7,1,1,3,b'HB_2_frameA.png',1822.662914189535,54679.88742568605,54679,1822.6333333333334
146,1822.6861374999999,54680.584124999994,54680,1822.6666666666667,1823.2484425,54697.453275,54697,1823.2333333333333,1824.7952062499999,54743.856187499994,54743,1824.7666666666667,1.9206747645512223,3,1,7,1,1,3,b'HB_5_frameA.png',1826.715881014551,54801.47643043653,54801,1826.7
147,1826.72284425,54801.6853275,54801,1826.7,1827.304571,54819.137129999996,54819,1827.3,1828.83196,54864.9588,54864,1828.8,1.613492225878872,3,0,7,1,2,3,b'HB_5_frameB_foil.png',1830.4454522258789,54913.36356677637,54913,1830.4333333333334
148,1830.4626815,54913.880444999995,54913,1830.4333333333334,1831.0446284999998,54931.338854999995,54931,1831.0333333333333,1832.571768,54977.15304,54977,1832.5666666666666,1.7456051314948127,1,1,2,2,2,3,b'NB_14_frameA.png',1834.3173731314948,55029.52119394484,55029,1834.3
149,1834.338611,55030.15833,55030,1834.3333333333333,1834.8804257499999,55046.41277249999,55046,1834.8666666666666,1836.4283282499998,55092.849847499994,55092,1836.4,2.233369382331148,3,0,7,1,2,3,b'HB_4_frameB_foil.png',1838.661697632331,55159.85092896993,55159,1838.6333333333334
150,1838.6861915,55160.585745,55160,1838.6666666666667,1839.2480349999998,55177.441049999994,55177,1839.2333333333333,1840.79595075,55223.8785225,55223,1840.7666666666667,2.405949608539231,3,0,7,1,2,3,b'HB_8_frameA_foil.png',1843.2019003585392,55296.05701075618,55296,1843.2
151,1843.212662,55296.37986,55296,1843.2,1843.77449525,55313.2348575,55313,1843.7666666666667,1845.3017142499998,55359.051427499995,55359,1845.3,1.8064484497299418,2,1,7,1,1,3,b'SB_1_frameB.png',1847.1081626997297,55413.24488099189,55413,1847.1
152,1847.114969,55413.44907,55413,1847.1,1847.656663,55429.699889999996,55429,1847.6333333333334,1849.2039475,55476.118425,55476,1849.2,1.7857311044353992,3,1,7,1,1,3,b'HB_7_frameB.png',1850.9896786044353,55529.69035813306,55529,1850.9666666666667
153,1851.01459725,55530.4379175,55530,1851.0,1851.516279,55545.48837,55545,1851.5,1853.0642102499999,55591.9263075,55591,1853.0333333333333,2.3034281180007383,3,0,7,1,2,3,b'HB_2_frameA_foil.png',1855.3676383680006,55661.02915104002,55661,1855.3666666666666
154,1855.38858725,55661.6576175,55661,1855.3666666666666,1855.93039575,55677.91187249999,55677,1855.9,1857.45754475,55723.7263425,55723,1857.4333333333334,1.3884230012772605,2,1,2,2,2,3,b'SB_2_frameB.png',1858.8459677512772,55765.379032538316,55765,1858.8333333333333
155,1858.8582259999998,55765.746779999994,55765,1858.8333333333333,1859.40005825,55782.0017475,55782,1859.4,1860.94716225,55828.4148675,55828,1860.9333333333334,1.867075951420702,1,1,2,2,2,3,b'NB_13_frameB.png',1862.8142382014207,55884.427146042624,55884,1862.8
156,1862.82619,55884.7857,55884,1862.8,1863.408324,55902.24972,55902,1863.4,1864.9555249999999,55948.66574999999,55948,1864.9333333333334,1.5774169493233785,1,1,2,2,2,3,b'NB_9_frameB.png',1866.5329419493232,55995.988258479694,55995,1866.5
157,1866.55169575,55996.550872499996,55996,1866.5333333333333,1867.0734619999998,56012.203859999994,56012,1867.0666666666666,1868.62069,56058.6207,56058,1868.6,1.6660230125999078,3,0,7,1,2,3,b'HB_1_frameA_foil.png',1870.2867130125999,56108.601390378,56108,1870.2666666666667
158,1870.3001305,56109.003915,56109,1870.3,1870.7818707499998,56123.45612249999,56123,1870.7666666666667,1872.32987175,56169.8961525,56169,1872.3,1.5848916110116988,3,1,2,2,2,3,b'HB_5_frameA.png',1873.9147633610116,56217.44290083035,56217,1873.9
159,1873.9375515,56218.126545,56218,1873.9333333333334,1874.43920725,56233.1762175,56233,1874.4333333333334,1875.9865565,56279.596695,56279,1875.9666666666667,1.489683679305017,1,0,2,2,1,3,b'NB_27_frameA_foil.png',1877.476240179305,56324.28720537915,56324,1877.4666666666667
160,1877.48360325,56324.5080975,56324,1877.4666666666667,1878.045467,56341.36401,56341,1878.0333333333333,1879.59344475,56387.803342499996,56387,1879.5666666666666,1.2536109760403633,1,1,2,2,2,3,b'NB_21_frameB.png',1880.8470557260403,56425.41167178121,56425,1880.8333333333333
161,1880.8670769999999,56426.01231,56426,1880.8666666666666,1881.3687082499998,56441.061247499994,56441,1881.3666666666666,1882.8959002499998,56486.87700749999,56486,1882.8666666666666,1.685353760025464,2,0,2,2,1,3,b'SB_3_frameB_foil.png',1884.5812540100253,56537.437620300756,56537,1884.5666666666666
162,1884.6031827499999,56538.09548249999,56538,1884.6,1885.1047127499999,56553.1413825,56553,1885.1,1886.632042,56598.96126,56598,1886.6,1.4783618396613747,1,1,2,2,2,3,b'NB_23_frameB.png',1888.1104038396613,56643.31211518984,56643,1888.1
163,1888.1159395,56643.478185,56643,1888.1,1888.67807075,56660.3421225,56660,1888.6666666666667,1890.20525525,56706.1576575,56706,1890.2,1.8296008945908397,2,1,2,2,2,3,b'SB_9_frameB.png',1892.0348561445908,56761.045684337725,56761,1892.0333333333333
164,1892.042115,56761.26345,56761,1892.0333333333333,1892.6040067499998,56778.120202499995,56778,1892.6,1894.1310629999998,56823.93188999999,56823,1894.1,1.1327918653842062,3,0,7,1,2,3,b'HB_2_frameB_foil.png',1895.263854865384,56857.91564596152,56857,1895.2333333333333
165,1895.27865725,56858.359717499996,56858,1895.2666666666667,1895.8004205,56874.012615,56874,1895.8,1897.34758275,56920.427482499996,56920,1897.3333333333333,1.69590231962502,2,1,7,1,1,3,b'SB_1_frameA.png',1899.043485069625,56971.304552088746,56971,1899.0333333333333
166,1899.048525,56971.45575,56971,1899.0333333333333,1899.570444,56987.11332,56987,1899.5666666666666,1901.117624,57033.52872,57033,1901.1,1.6093621287727728,3,0,7,1,2,3,b'HB_2_frameB_foil.png',1902.7269861287728,57081.809583863185,57081,1902.7
167,1902.74811675,57082.4435025,57082,1902.7333333333333,1903.2699014999998,57098.097044999995,57098,1903.2666666666667,1904.7970429999998,57143.91129,57143,1904.7666666666667,1.8170808180002496,1,0,7,1,2,3,b'NB_25_frameA_foil.png',1906.614123818,57198.423714540004,57198,1906.6
168,1906.62126425,57198.6379275,57198,1906.6,1907.18343025,57215.5029075,57215,1907.1666666666667,1908.710547,57261.31641,57261,1908.7,1.8073711928445846,2,1,7,1,1,3,b'SB_6_frameA.png',1910.5179181928445,57315.53754578534,57315,1910.5
169,1910.5362962499999,57316.088887499995,57316,1910.5333333333333,1911.03801325,57331.1403975,57331,1911.0333333333333,1912.5651555,57376.954665,57376,1912.5333333333333,1.3648545214673504,2,1,7,1,1,3,b'SB_1_frameB.png',1913.9300100214673,57417.90030064402,57417,1913.9
170,1913.945133,57418.353989999996,57418,1913.9333333333334,1914.44704325,57433.4112975,57433,1914.4333333333334,1915.9740984999999,57479.222955,57479,1915.9666666666667,2.507284109480679,3,1,7,1,1,3,b'HB_3_frameA.png',1918.4813826094805,57554.44147828442,57554,1918.4666666666667
171,1918.50078625,57555.0235875,57555,1918.5,1919.08278725,57572.483617499995,57572,1919.0666666666666,1920.6306917499999,57618.920752499995,57618,1920.6,1.5596588777843863,1,0,7,1,2,3,b'NB_10_frameB_foil.png',1922.1903506277843,57665.710518833526,57665,1922.1666666666667
172,1922.2101805,57666.305415,57666,1922.2,1922.7722577499999,57683.1677325,57683,1922.7666666666667,1924.3201625,57729.604875,57729,1924.3,1.5331567802932113,1,1,7,1,1,3,b'NB_19_frameB.png',1925.8533192802931,57775.59957840879,57775,1925.8333333333333
173,1925.86665075,57775.9995225,57775,1925.8333333333333,1926.38840425,57791.6521275,57791,1926.3666666666666,1927.935573,57838.06719,57838,1927.9333333333334,1.6851253670174628,2,0,2,2,1,3,b'SB_8_frameB_foil.png',1929.6206983670174,57888.620951010525,57888,1929.6
174,1929.6413825,57889.241475,57889,1929.6333333333334,1930.1430404999999,57904.291215,57904,1930.1333333333334,1931.6701019999998,57950.103059999994,57950,1931.6666666666667,1.8350235791876912,2,0,2,2,1,3,b'SB_1_frameB_foil.png',1933.5051255791875,58005.153767375625,58005,1933.5
175,1933.52990925,58005.8972775,58005,1933.5,1934.0516699999998,58021.55009999999,58021,1934.0333333333333,1935.5788499999999,58067.3655,58067,1935.5666666666666,1.6889713271521032,1,1,2,2,2,3,b'NB_12_frameA.png',1937.267821327152,58118.03463981456,58118,1937.2666666666667
176,1937.2745005,58118.235015,58118,1937.2666666666667,1937.8363602499999,58135.0908075,58135,1937.8333333333333,1939.38351,58181.5053,58181,1939.3666666666666,1.7488927103113383,2,1,2,2,2,3,b'SB_7_frameB.png',1941.1324027103112,58233.97208130934,58233,1941.1
177,1941.1879172499998,58235.63751749999,58235,1941.1666666666667,1941.7860859999998,58253.582579999995,58253,1941.7666666666667,1943.3105142499999,58299.3154275,58299,1943.3,1.905414501670748,2,1,2,2,2,3,b'SB_30_frameA.png',1945.2159287516706,58356.47786255012,58356,1945.2
178,1945.2809197499998,58358.4275925,58358,1945.2666666666667,1945.808816,58374.26448,58374,1945.8,1947.32662025,58419.79860749999,58419,1947.3,1.0655999523587525,2,0,5,1,2,1,b'SB_30_frameB_foil.png',1948.3922202023587,58451.766606070756,58451,1948.3666666666666
179,1948.4640024999999,58453.920074999995,58453,1948.4333333333334,1948.991943,58469.75829,58469,1948.9666666666667,1950.5244364999999,58515.733094999996,58515,1950.5,1.9625718246679753,3,1,6,1,1,2,b'HB_30_frameB.png',1952.4870083246678,58574.610249740035,58574,1952.4666666666667
180,1952.5424825,58576.274475,58576,1952.5333333333333,1953.0843005,58592.529015,58592,1953.0666666666666,1954.6293825,58638.881475,58638,1954.6,1.5143311311258003,3,0,6,1,2,2,b'HB_30_frameA_foil.png',1956.1437136311258,58684.311408933776,58684,1956.1333333333334
