trial_num,fixcross_time,fixation_HZ,fixation_bin,fixation_regarded,start_time,Fstart_HZ,Fstart_bin,Fstart_regarded,stop_time,Fstop_HZ,Fstop_bin,Fstop_regarded,RT,boundary_type,stimuli_type,resp_value,old_new,accuracy,confidence,frameName,response_time,response_HZ,response_bin,response_regarded
1,1348.7284272499999,40461.852817499996,40461,1348.7,1349.2500894999998,40477.50268499999,40477,1349.2333333333333,1350.805592,40524.16776,40524,1350.8,1.022813982839125,1,1,3,2,2,2,b'NB_6_frameA.png',1351.828405982839,40554.85217948517,40554,1351.8
2,1351.84611075,40555.3833225,40555,1351.8333333333333,1352.4082125,40572.246375,40572,1352.4,1353.9357802499999,40618.07340749999,40618,1353.9333333333334,3.835040723847669,3,0,6,1,2,2,b'HB_1_frameA_foil.png',1357.7708209738475,40733.124629215425,40733,1357.7666666666667
3,1357.797577,40733.92731,40733,1357.7666666666667,1358.3795149999999,40751.385449999994,40751,1358.3666666666666,1359.92717825,40797.8153475,40797,1359.9,0.9111487520051469,3,0,7,1,2,3,b'HB_2_frameB_foil.png',1360.8383270020051,40825.14981006015,40825,1360.8333333333333
4,1360.8551654999999,40825.654964999994,40825,1360.8333333333333,1361.4371919999999,40843.11575999999,40843,1361.4333333333334,1362.9679025,40889.037075,40889,1362.9666666666667,1.3934272486153532,2,1,2,2,2,3,b'SB_4_frameB.png',1364.3613297486154,40930.83989245846,40930,1364.3333333333333
5,1364.38377575,40931.5132725,40931,1364.3666666666666,1364.92568375,40947.7705125,40947,1364.9,1366.4765384999998,40994.296154999996,40994,1366.4666666666667,1.7226981270180204,2,0,7,1,2,3,b'SB_4_frameA_foil.png',1368.1992366270179,41045.97709881054,41045,1368.1666666666667
6,1368.223235,41046.697049999995,41046,1368.2,1368.78522625,41063.5567875,41063,1368.7666666666667,1370.31262,41109.3786,41109,1370.3,1.7041169969052135,1,1,2,2,2,3,b'NB_28_frameA.png',1372.0167369969051,41160.50210990715,41160,1372.0
7,1372.0335619999998,41161.006859999994,41161,1372.0333333333333,1372.5754399999998,41177.263199999994,41177,1372.5666666666666,1374.1232734999999,41223.69820499999,41223,1374.1,0.9656309177134972,2,0,7,1,2,3,b'SB_9_frameB_foil.png',1375.0889044177134,41252.6671325314,41252,1375.0666666666666
8,1375.10643225,41253.1929675,41253,1375.1,1375.68841725,41270.6525175,41270,1375.6666666666667,1377.2156635,41316.469905,41316,1377.2,2.4409077052932844,3,0,6,1,2,2,b'HB_4_frameA_foil.png',1379.6565712052932,41389.69713615879,41389,1379.6333333333334
9,1379.6789254999999,41390.367764999995,41390,1379.6666666666667,1380.2006595,41406.019785000004,41406,1380.2,1381.728517,41451.85551,41451,1381.7,1.7661237659315248,2,0,6,1,2,2,b'SB_2_frameB_foil.png',1383.4946407659315,41504.83922297795,41504,1383.4666666666667
10,1383.5076689999999,41505.23007,41505,1383.5,1384.0896135,41522.688405,41522,1384.0666666666666,1385.6375475,41569.126425,41569,1385.6333333333334,0.0,3,0,1,0,1,0,b'HB_1_frameA_foil.png',1385.6375475,41569.126425,41569,1385.6333333333334
11,1385.7091255,41571.273765,41571,1385.7,1386.31115525,41589.334657499996,41589,1386.3,1387.8384995,41635.154984999994,41635,1387.8333333333333,4.43794652456495,3,1,2,2,2,3,b'HB_2_frameA.png',1392.2764460245648,41768.29338073695,41768,1392.2666666666667
12,1392.28830875,41768.649262499996,41768,1392.2666666666667,1392.8101205,41784.303615000004,41784,1392.8,1394.3580554999999,41830.741664999994,41830,1394.3333333333333,1.6998897711862355,3,1,3,2,2,2,b'HB_1_frameB.png',1396.057945271186,41881.73835813558,41881,1396.0333333333333
13,1396.07102175,41882.130652499996,41882,1396.0666666666666,1396.65299225,41899.589767499994,41899,1396.6333333333334,1398.200239,41946.00717,41946,1398.2,1.1732208626281135,2,1,2,2,2,3,b'SB_3_frameA.png',1399.3734598626281,41981.20379587884,41981,1399.3666666666666
14,1399.390146,41981.704379999996,41981,1399.3666666666666,1399.97209825,41999.1629475,41999,1399.9666666666667,1401.5021645,42045.064934999995,42045,1401.5,0.0,3,0,1,0,1,0,b'HB_9_frameB_foil.png',1401.5021645,42045.064934999995,42045,1401.5
15,1404.82438,42144.731400000004,42144,1404.8,1405.4264329999999,42162.792989999994,42162,1405.4,1406.9736285,42209.208855,42209,1406.9666666666667,1.5312111294340411,2,0,7,1,2,3,b'SB_6_frameB_foil.png',1408.504839629434,42255.14518888302,42255,1408.5
16,1408.5122695,42255.368085,42255,1408.5,1409.0541712499999,42271.6251375,42271,1409.0333333333333,1410.581404,42317.44212,42317,1410.5666666666666,2.0134485359717473,1,0,7,1,2,3,b'NB_20_frameB_foil.png',1412.5948525359718,42377.845576079155,42377,1412.5666666666666
17,1412.6018347499999,42378.0550425,42378,1412.6,1413.1636684999999,42394.91005499999,42394,1413.1333333333334,1414.71087875,42441.326362499996,42441,1414.7,2.7605384021826467,3,0,7,1,2,3,b'HB_4_frameB_foil.png',1417.4714171521825,42524.14251456548,42524,1417.4666666666667
18,1417.49169975,42524.7509925,42524,1417.4666666666667,1417.9934345,42539.803035,42539,1417.9666666666667,1419.521254,42585.63762,42585,1419.5,1.6754217109862566,3,0,7,1,2,3,b'HB_7_frameB_foil.png',1421.1966757109863,42635.900271329585,42635,1421.1666666666667
19,1421.212567,42636.377010000004,42636,1421.2,1421.75435625,42652.6306875,42652,1421.7333333333333,1423.2821797499998,42698.465392499995,42698,1423.2666666666667,1.8854119398436069,1,0,7,1,2,3,b'NB_12_frameB_foil.png',1425.1675916898434,42755.027750695306,42755,1425.1666666666667
20,1425.1865552499999,42755.5966575,42755,1425.1666666666667,1425.7885449999999,42773.65635,42773,1425.7666666666667,1427.3159604999998,42819.478814999995,42819,1427.3,1.667055144588403,2,1,2,2,2,3,b'SB_8_frameB.png',1428.9830156445882,42869.490469337645,42869,1428.9666666666667
21,1429.00230425,42870.0691275,42870,1429.0,1429.5639675,42886.919025,42886,1429.5333333333333,1431.1116885,42933.350654999995,42933,1431.1,2.1251411831322002,3,0,6,1,2,2,b'HB_2_frameB_foil.png',1433.236829683132,42997.10489049396,42997,1433.2333333333333
22,1433.242074,42997.26222,42997,1433.2333333333333,1433.8041827499999,43014.1254825,43014,1433.8,1435.3315055,43059.945165000005,43059,1435.3,0.821139009276294,3,0,6,1,2,2,b'HB_1_frameB_foil.png',1436.1526445092763,43084.57933527829,43084,1436.1333333333334
23,1436.16056475,43084.8169425,43084,1436.1333333333334,1436.702438,43101.07314,43101,1436.7,1438.23019325,43146.905797499996,43146,1438.2,1.7770437786555249,1,0,6,1,2,2,b'NB_22_frameB_foil.png',1440.0072370286555,43200.21711085967,43200,1440.0
24,1440.01281525,43200.3844575,43200,1440.0,1440.5949245,43217.847734999996,43217,1440.5666666666666,1442.1422865,43264.268595,43264,1442.1333333333334,1.278983443782863,2,1,2,2,2,3,b'SB_4_frameB.png',1443.4212699437828,43302.63809831349,43302,1443.4
25,1443.4318335,43302.955005,43302,1443.4,1443.99386575,43319.8159725,43319,1443.9666666666667,1445.5411205,43366.233615000005,43366,1445.5333333333333,0.0,1,0,1,0,1,0,b'NB_18_frameB_foil.png',1445.5411205,43366.233615000005,43366,1445.5333333333333
26,1447.52837725,43425.8513175,43425,1447.5,1448.130418,43443.91254,43443,1448.1,1449.677623,43490.32869,43490,1449.6666666666667,0.0,3,1,1,0,1,0,b'HB_6_frameA.png',1449.677623,43490.32869,43490,1449.6666666666667
27,1451.53870975,43546.1612925,43546,1451.5333333333333,1452.1407582499999,43564.222747499996,43564,1452.1333333333334,1453.6682847499999,43610.04854249999,43610,1453.6666666666667,0.0,3,1,1,0,1,0,b'HB_2_frameA.png',1453.6682847499999,43610.04854249999,43610,1453.6666666666667
28,1456.5626942499998,43696.8808275,43696,1456.5333333333333,1457.1044955,43713.134865,43713,1457.1,1458.6516505,43759.549515,43759,1458.6333333333334,0.9416113499237326,3,1,3,2,2,2,b'HB_2_frameA.png',1459.5932618499237,43787.79785549771,43787,1459.5666666666666
29,1459.6079515,43788.238545,43788,1459.6,1460.1495532499998,43804.48659749999,43804,1460.1333333333334,1461.69693325,43850.9079975,43850,1461.6666666666667,1.3765699022667377,1,0,6,1,2,2,b'NB_30_frameB_foil.png',1463.0735031522668,43892.205094568,43892,1463.0666666666666
30,1463.0788375,43892.365125,43892,1463.0666666666666,1463.60060275,43908.0180825,43908,1463.6,1465.12799925,43953.8399775,43953,1465.1,2.0328734424851973,1,1,2,2,2,3,b'NB_7_frameB.png',1467.160872692485,44014.82618077455,44014,1467.1333333333334
31,1467.1803742499999,44015.41122749999,44015,1467.1666666666667,1467.702063,44031.06189,44031,1467.7,1469.22948075,44076.8844225,44076,1469.2,2.0620735491650066,2,1,2,2,2,3,b'SB_1_frameB.png',1471.291554299165,44138.74662897495,44138,1471.2666666666667
32,1471.2978085,44138.934255,44138,1471.2666666666667,1471.8396249999998,44155.188749999994,44155,1471.8333333333333,1473.36698575,44201.0095725,44201,1473.3666666666666,1.990692403082221,1,0,7,1,2,3,b'NB_4_frameB_foil.png',1475.3576781530821,44260.73034459246,44260,1475.3333333333333
33,1475.36556225,44260.9668675,44260,1475.3333333333333,1475.94753225,44278.4259675,44278,1475.9333333333334,1477.4954707499999,44324.864122499996,44324,1477.4666666666667,0.5538024226279958,1,0,7,1,2,3,b'NB_2_frameB_foil.png',1478.0492731726279,44341.47819517884,44341,1478.0333333333333
34,1478.06887125,44342.0661375,44342,1478.0666666666666,1478.57053675,44357.1161025,44357,1478.5666666666666,1480.118481,44403.55443,44403,1480.1,1.4007778949892327,2,0,6,1,2,2,b'SB_1_frameB_foil.png',1481.5192588949892,44445.577766849674,44445,1481.5
35,1481.5341675,44446.025024999995,44446,1481.5333333333333,1482.09608575,44462.8825725,44462,1482.0666666666666,1483.64335975,44509.3007925,44509,1483.6333333333334,0.8938215434620815,3,0,7,1,2,3,b'HB_1_frameA_foil.png',1484.537181293462,44536.11543880386,44536,1484.5333333333333
36,1484.5585039999999,44536.755119999994,44536,1484.5333333333333,1485.08026225,44552.4078675,44552,1485.0666666666666,1486.60750225,44598.225067499996,44598,1486.6,1.4018764211821235,3,0,6,1,2,2,b'HB_8_frameA_foil.png',1488.009378671182,44640.281360135465,44640,1488.0
37,1488.0272102499998,44640.8163075,44640,1488.0,1488.5891319999998,44657.67395999999,44657,1488.5666666666666,1490.1164959999999,44703.49488,44703,1490.1,1.1997388525976476,1,1,2,2,2,3,b'NB_13_frameB.png',1491.3162348525975,44739.487045577924,44739,1491.3
38,1491.3375107499999,44740.1253225,44740,1491.3333333333333,1491.8391465,44755.174395,44755,1491.8333333333333,1493.38644775,44801.5934325,44801,1493.3666666666666,2.745461725147834,3,0,7,1,2,3,b'HB_1_frameB_foil.png',1496.1319094751477,44883.95728425443,44883,1496.1
39,1496.1492234999998,44884.476704999994,44884,1496.1333333333334,1496.7110905,44901.332715,44901,1496.7,1498.23840025,44947.1520075,44947,1498.2333333333333,2.2025746610524948,1,1,2,2,2,3,b'NB_23_frameB.png',1500.4409749110525,45013.229247331576,45013,1500.4333333333334
40,1500.44952475,45013.485742499994,45013,1500.4333333333334,1501.0315675,45030.947025,45030,1501.0,1502.5795047499998,45077.385142499996,45077,1502.5666666666666,0.315818680277971,3,1,3,2,2,2,b'HB_3_frameA.png',1502.8953234302778,45086.85970290833,45086,1502.8666666666666
41,1502.9070829999998,45087.21249,45087,1502.9,1503.4487319999998,45103.46195999999,45103,1503.4333333333334,1504.97638625,45149.291587499996,45149,1504.9666666666667,1.3578209800141394,2,1,3,2,2,2,b'SB_7_frameB.png',1506.334207230014,45190.02621690042,45190,1506.3333333333333
42,1506.3426865,45190.280595,45190,1506.3333333333333,1506.92460775,45207.7382325,45207,1506.9,1508.47178575,45254.1535725,45254,1508.4666666666667,1.841245042943683,2,0,7,1,2,3,b'SB_4_frameB_foil.png',1510.3130307929437,45309.39092378831,45309,1510.3
43,1510.3218239999999,45309.65472,45309,1510.3,1510.86363775,45325.9091325,45325,1510.8333333333333,1512.4115235,45372.345705,45372,1512.4,2.077561959482182,2,0,6,1,2,2,b'SB_5_frameB_foil.png',1514.489085459482,45434.672563784465,45434,1514.4666666666667
44,1514.50709225,45435.212767499994,45435,1514.5,1515.088955,45452.66865,45452,1515.0666666666666,1516.63626925,45499.0880775,45499,1516.6333333333334,0.2240348937195904,3,1,2,2,2,3,b'HB_6_frameA.png',1516.8603041437195,45505.809124311585,45505,1516.8333333333333
45,1516.8772255,45506.316764999996,45506,1516.8666666666666,1517.418999,45522.56997,45522,1517.4,1518.9669864999998,45569.009594999996,45569,1518.9666666666667,1.2821123958963199,3,1,3,2,2,2,b'HB_8_frameB.png',1520.2490988958962,45607.472966876885,45607,1520.2333333333333
46,1520.25905225,45607.7715675,45607,1520.2333333333333,1520.8409259999999,45625.227779999994,45625,1520.8333333333333,1522.36830025,45671.0490075,45671,1522.3666666666666,1.6564772807689678,2,0,6,1,2,2,b'SB_9_frameA_foil.png',1524.024777530769,45720.74332592307,45720,1524.0
47,1524.03723425,45721.1170275,45721,1524.0333333333333,1524.57914125,45737.3742375,45737,1524.5666666666666,1526.1063685,45783.191054999996,45783,1526.1,1.342941657822621,1,1,3,2,2,2,b'NB_16_frameA.png',1527.4493101578225,45823.479304734676,45823,1527.4333333333334
48,1527.4559574999998,45823.678725,45823,1527.4333333333334,1528.01770675,45840.531202499995,45840,1528.0,1529.5659765,45886.979295,45886,1529.5333333333333,1.3183645134317885,3,1,3,2,2,2,b'HB_9_frameB.png',1530.8843410134318,45926.530230402954,45926,1530.8666666666666
49,1530.8989505,45926.968515,45926,1530.8666666666666,1531.400651,45942.01953,45942,1531.4,1532.9280167499999,45987.840502499996,45987,1532.9,2.647600594781352,3,1,2,2,2,3,b'HB_2_frameB.png',1535.5756173447812,46067.26852034344,46067,1535.5666666666666
50,1535.590739,46067.72217,46067,1535.5666666666666,1536.1927575,46085.782725,46085,1536.1666666666667,1537.720039,46131.60117,46131,1537.7,3.186634950738835,3,0,7,1,2,3,b'HB_6_frameB_foil.png',1540.9066739507389,46227.200218522165,46227,1540.9
51,1540.9233379999998,46227.70013999999,46227,1540.9,1541.4652225,46243.956675,46243,1541.4333333333334,1542.992432,46289.77296,46289,1542.9666666666667,1.1754485875981118,1,0,7,1,2,3,b'NB_17_frameA_foil.png',1544.1678805875981,46325.03641762794,46325,1544.1666666666667
52,1544.1871489999999,46325.61446999999,46325,1544.1666666666667,1544.76899125,46343.0697375,46343,1544.7666666666667,1546.3171842499999,46389.51552749999,46389,1546.3,0.20248625870112846,3,0,7,1,2,3,b'HB_2_frameB_foil.png',1546.519670508701,46395.59011526103,46395,1546.5
53,1546.5363714999999,46396.091145,46396,1546.5333333333333,1547.1383265,46414.149795,46414,1547.1333333333334,1548.6655715,46459.967144999995,46459,1548.6333333333334,1.4118490996281707,1,0,7,1,2,3,b'NB_26_frameB_foil.png',1550.077420599628,46502.322617988844,46502,1550.0666666666666
54,1550.0961555,46502.884665,46502,1550.0666666666666,1550.6580079999999,46519.74024,46519,1550.6333333333334,1552.1854242499999,46565.56272749999,46565,1552.1666666666667,2.192188528036013,1,0,7,1,2,3,b'NB_14_frameB_foil.png',1554.3776127780359,46631.328383341075,46631,1554.3666666666666
55,1554.389146,46631.67438,46631,1554.3666666666666,1554.91088875,46647.326662499996,46647,1554.9,1556.4382679999999,46693.14804,46693,1556.4333333333334,0.7537672222717902,1,0,7,1,2,3,b'NB_16_frameB_foil.png',1557.1920352222717,46715.76105666815,46715,1557.1666666666667
56,1557.21355475,46716.4066425,46716,1557.2,1557.79549625,46733.8648875,46733,1557.7666666666667,1559.32351625,46779.7054875,46779,1559.3,1.2025848575278815,2,0,7,1,2,3,b'SB_7_frameA_foil.png',1560.526101107528,46815.78303322584,46815,1560.5
57,1560.536734,46816.10202,46816,1560.5333333333333,1561.0586079999998,46831.758239999996,46831,1561.0333333333333,1562.6058639999999,46878.175919999994,46878,1562.6,1.9754368077044546,2,0,7,1,2,3,b'SB_8_frameB_foil.png',1564.5813008077043,46937.43902423113,46937,1564.5666666666666
58,1564.589041,46937.67123,46937,1564.5666666666666,1565.110774,46953.32322,46953,1565.1,1566.6385867499998,46999.157602499996,46999,1566.6333333333334,2.095109903764751,1,1,2,2,2,3,b'NB_24_frameA.png',1568.7336966537646,47062.010899612935,47062,1568.7333333333333
59,1568.74582925,47062.3748775,47062,1568.7333333333333,1569.3077005,47079.231015,47079,1569.3,1570.8349994999999,47125.049985,47125,1570.8333333333333,1.3126833390192587,2,1,3,2,2,2,b'SB_2_frameA.png',1572.1476828390191,47164.430485170575,47164,1572.1333333333334
60,1572.1693552499999,47165.080657499995,47165,1572.1666666666667,1572.6909672499999,47180.729017499994,47180,1572.6666666666667,1574.239091,47227.17273,47227,1574.2333333333333,2.1076979707254395,1,0,6,1,2,2,b'NB_11_frameA_foil.png',1576.3467889707254,47290.40366912176,47290,1576.3333333333333
61,1576.3662285,47290.986855,47290,1576.3333333333333,1576.948185,47308.44555,47308,1576.9333333333334,1578.47538775,47354.2616325,47354,1578.4666666666667,1.9167189623121885,1,1,2,2,2,3,b'NB_5_frameB.png',1580.3921067123122,47411.763201369366,47411,1580.3666666666666
62,1580.3977585,47411.932755,47411,1580.3666666666666,1580.9597775,47428.793325,47428,1580.9333333333334,1582.487058,47474.61174,47474,1582.4666666666667,1.152309129693549,1,1,2,2,2,3,b'NB_29_frameB.png',1583.6393671296935,47509.181013890804,47509,1583.6333333333334
63,1583.6627245,47509.881735,47509,1583.6333333333334,1584.2647519999998,47527.942559999996,47527,1584.2333333333333,1585.81259725,47574.3779175,47574,1585.8,-0.9640455678268154,3,1,2,2,2,3,b'HB_6_frameB.png',1584.8485516821731,47545.45655046519,47545,1584.8333333333333
64,1584.8558544999999,47545.67563499999,47545,1584.8333333333333,1585.45787325,47563.736197499995,47563,1585.4333333333334,1586.9852134999999,47609.556404999996,47609,1586.9666666666667,-0.499401966813366,3,1,3,2,2,2,b'HB_5_frameB.png',1586.4858115331865,47594.57434599559,47594,1586.4666666666667
65,1586.508036,47595.24108,47595,1586.5,1587.11004975,47613.301492499995,47613,1587.1,1588.63734125,47659.1202375,47659,1588.6333333333334,0.8436518169678493,2,1,2,2,2,3,b'SB_2_frameA.png',1589.4809930669678,47684.42979200903,47684,1589.4666666666667
66,1589.4917914999999,47684.753744999995,47684,1589.4666666666667,1590.053666,47701.60998,47701,1590.0333333333333,1591.60104375,47748.031312499996,47748,1591.6,0.019091459415903955,3,1,2,2,2,3,b'HB_1_frameA.png',1591.6201352094158,47748.60405628248,47748,1591.6
67,1591.62815575,47748.844672499996,47748,1591.6,1592.169915,47765.09745,47765,1592.1666666666667,1593.69731375,47810.9194125,47810,1593.6666666666667,0.8376408845924743,1,1,3,2,2,2,b'NB_11_frameB.png',1594.5349546345924,47836.04863903777,47836,1594.5333333333333
68,1594.53986375,47836.1959125,47836,1594.5333333333333,1595.14208775,47854.2626325,47854,1595.1333333333334,1596.6693592499998,47900.08077749999,47900,1596.6666666666667,-0.10772153579546284,3,0,7,1,2,3,b'HB_6_frameB_foil.png',1596.5616377142044,47896.849131426134,47896,1596.5333333333333
69,1596.5765529999999,47897.29659,47897,1596.5666666666666,1597.178563,47915.356889999995,47915,1597.1666666666667,1598.725952,47961.77856,47961,1598.7,2.1804498103383594,1,0,7,1,2,3,b'NB_28_frameB_foil.png',1600.9064018103384,48027.19205431015,48027,1600.9
70,1600.9301564999998,48027.904695,48027,1600.9,1601.5522405,48046.567214999995,48046,1601.5333333333333,1603.0795102499999,48092.38530749999,48092,1603.0666666666666,1.8510687670250263,1,0,7,1,2,3,b'NB_29_frameA_foil.png',1604.930579017025,48147.917370510746,48147,1604.9
71,1604.9525365,48148.576095,48148,1604.9333333333334,1605.514635,48165.43905,48165,1605.5,1607.0419885,48211.259654999994,48211,1607.0333333333333,1.5651742652307803,3,1,2,2,2,3,b'HB_2_frameA.png',1608.6071627652307,48258.21488295692,48258,1608.6
72,1608.6300565,48258.901695,48258,1608.6,1609.19194475,48275.7583425,48275,1609.1666666666667,1610.71951975,48321.5855925,48321,1610.7,1.2242873243139911,2,1,2,2,2,3,b'SB_6_frameB.png',1611.943807074314,48358.31421222942,48358,1611.9333333333334
73,1611.9681615,48359.044845,48359,1611.9666666666667,1612.5501175,48376.503525,48376,1612.5333333333333,1614.077358,48422.32074,48422,1614.0666666666666,2.159895488442089,2,0,7,1,2,3,b'SB_1_frameA_foil.png',1616.237253488442,48487.117604653264,48487,1616.2333333333333
74,1616.2560055,48487.680165,48487,1616.2333333333333,1616.79782875,48503.9348625,48503,1616.7666666666667,1618.34506675,48550.352002499996,48550,1618.3333333333333,2.3509955288595847,2,0,7,1,2,3,b'SB_3_frameB_foil.png',1620.6960622788595,48620.88186836578,48620,1620.6666666666667
75,1620.704422,48621.13266,48621,1620.7,1621.2462265,48637.386795,48637,1621.2333333333333,1622.7934237499999,48683.80271249999,48683,1622.7666666666667,1.1126908697201543,3,0,7,1,2,3,b'HB_3_frameB_foil.png',1623.90611461972,48717.1834385916,48717,1623.9
76,1623.9227389999999,48717.68216999999,48717,1623.9,1624.5247714999998,48735.74314499999,48735,1624.5,1626.05201675,48781.5605025,48781,1626.0333333333333,1.6705533720405583,2,0,7,1,2,3,b'SB_4_frameA_foil.png',1627.7225701220405,48831.67710366121,48831,1627.7
77,1627.747617,48832.42851,48832,1627.7333333333333,1628.32959725,48849.887917500004,48849,1628.3,1629.87680075,48896.3040225,48896,1629.8666666666666,3.921103560219308,3,1,2,2,2,3,b'HB_7_frameA.png',1633.7979043102193,49013.93712930658,49013,1633.7666666666667
78,1633.8028797499999,49014.086392499994,49014,1633.8,1634.3248965,49029.746895000004,49029,1634.3,1635.87282775,49076.184832499996,49076,1635.8666666666666,1.6251146331283053,2,1,2,2,2,3,b'SB_2_frameB.png',1637.4979423831282,49124.93827149385,49124,1637.4666666666667
79,1637.5152584999998,49125.457754999996,49125,1637.5,1638.05701125,49141.7103375,49141,1638.0333333333333,1639.58443625,49187.5330875,49187,1639.5666666666666,0.9341327735528466,2,1,2,2,2,3,b'SB_5_frameA.png',1640.5185690235528,49215.557070706585,49215,1640.5
80,1640.52499375,49215.7498125,49215,1640.5,1641.02648775,49230.794632499994,49230,1641.0,1642.5539724999999,49276.619175,49276,1642.5333333333333,1.6614315717124555,1,0,7,1,2,3,b'NB_9_frameA_foil.png',1644.2154040717123,49326.462122151366,49326,1644.2
81,1644.22579125,49326.7737375,49326,1644.2,1644.7475514999999,49342.426544999995,49342,1644.7333333333333,1646.2748339999998,49388.245019999995,49388,1646.2666666666667,0.928078320964687,2,0,7,1,2,3,b'SB_1_frameB_foil.png',1647.2029123209645,49416.087369628935,49416,1647.2
82,1647.21284475,49416.3853425,49416,1647.2,1647.77461875,49433.238562499995,49433,1647.7666666666667,1649.30208075,49479.0624225,49479,1649.3,2.714375280617787,3,1,7,1,1,3,b'HB_1_frameB.png',1652.0164560306177,49560.49368091853,49560,1652.0
83,1652.0305505,49560.916515,49560,1652.0,1652.63241225,49578.9723675,49578,1652.6,1654.1597654999998,49624.79296499999,49624,1654.1333333333334,1.70011179462972,1,0,7,1,2,3,b'NB_19_frameA_foil.png',1655.8598772946295,49675.79631883889,49675,1655.8333333333333
84,1655.87547925,49676.264377499996,49676,1655.8666666666666,1656.4175045,49692.525134999996,49692,1656.4,1657.9447785,49738.343355,49738,1657.9333333333334,1.6507330160334277,3,0,2,2,1,3,b'HB_2_frameB_foil.png',1659.5955115160334,49787.865345481005,49787,1659.5666666666666
85,1659.61396675,49788.4190025,49788,1659.6,1660.1358504999998,49804.075515,49804,1660.1333333333334,1661.6631785,49849.895355,49849,1661.6333333333334,1.8677386260392268,2,0,7,1,2,3,b'SB_8_frameA_foil.png',1663.5309171260392,49905.92751378118,49905,1663.5
86,1663.53827975,49906.1483925,49906,1663.5333333333333,1664.0600499999998,49921.801499999994,49921,1664.0333333333333,1665.5872997499998,49967.61899249999,49967,1665.5666666666666,-0.03723956587373323,3,0,6,1,2,2,b'HB_3_frameB_foil.png',1665.550060184126,49966.50180552378,49966,1665.5333333333333
87,1665.5702589999999,49967.107769999995,49967,1665.5666666666666,1666.0719305,49982.157915,49982,1666.0666666666666,1667.59921825,50027.976547499995,50027,1667.5666666666666,1.4988591728902065,2,1,2,2,2,3,b'SB_5_frameB.png',1669.0980774228901,50072.94232268671,50072,1669.0666666666666
88,1669.12218775,50073.6656325,50073,1669.1,1669.70429075,50091.1287225,50091,1669.7,1671.2522542499999,50137.56762749999,50137,1671.2333333333333,1.3030038721631172,2,1,2,2,2,3,b'SB_3_frameA.png',1672.555258122163,50176.65774366489,50176,1672.5333333333333
89,1672.57101275,50177.1303825,50177,1672.5666666666666,1673.11269475,50193.380842499995,50193,1673.1,1674.66090925,50239.8272775,50239,1674.6333333333334,1.9055299884480519,3,0,7,1,2,3,b'HB_7_frameA_foil.png',1676.566439238448,50296.99317715344,50296,1676.5333333333333
90,1676.5826017499999,50297.478052499995,50297,1676.5666666666666,1677.12437175,50313.7311525,50313,1677.1,1678.67262775,50360.1788325,50360,1678.6666666666667,1.3982986152154808,2,0,7,1,2,3,b'SB_2_frameA_foil.png',1680.0709263652154,50402.12779095646,50402,1680.0666666666666
91,1680.08734225,50402.620267499995,50402,1680.0666666666666,1680.589031,50417.67093,50417,1680.5666666666666,1682.1361587499998,50464.084762499995,50464,1682.1333333333334,1.8495379483124452,1,1,2,2,2,3,b'NB_26_frameA.png',1683.9856966983123,50519.570900949366,50519,1683.9666666666667
92,1683.998693,50519.96079,50519,1683.9666666666667,1684.5805982499999,50537.4179475,50537,1684.5666666666666,1686.1084457499999,50583.253372499996,50583,1686.1,1.4165483299966581,2,0,7,1,2,3,b'SB_3_frameA_foil.png',1687.5249940799965,50625.7498223999,50625,1687.5
93,1687.5470235,50626.410705,50626,1687.5333333333333,1688.14910225,50644.473067499996,50644,1688.1333333333334,1689.67636075,50690.2908225,50690,1689.6666666666667,1.5452154098998108,2,1,2,2,2,3,b'SB_1_frameA.png',1691.2215761598998,50736.64728479699,50736,1691.2
94,1691.2286032499999,50736.85809749999,50736,1691.2,1691.83045075,50754.9135225,50754,1691.8,1693.35783225,50800.7349675,50800,1693.3333333333333,1.821849360422675,1,1,2,2,2,3,b'NB_19_frameB.png',1695.1796816104227,50855.39044831268,50855,1695.1666666666667
95,1695.2042084999998,50856.126254999996,50856,1695.2,1695.8060635,50874.181905,50874,1695.8,1697.353619,50920.60857,50920,1697.3333333333333,2.16906014265669,3,1,6,1,1,2,b'HB_8_frameB.png',1699.5226791426567,50985.6803742797,50985,1699.5
96,1699.5470544999998,50986.411635,50986,1699.5333333333333,1700.108733,51003.26199,51003,1700.1,1701.63624125,51049.0872375,51049,1701.6333333333334,2.3058269758312235,3,1,2,2,2,3,b'HB_3_frameB.png',1703.9420682258312,51118.26204677494,51118,1703.9333333333334
97,1703.9483867499998,51118.4516025,51118,1703.9333333333334,1704.4502332499999,51133.50699749999,51133,1704.4333333333334,1705.9776057499998,51179.3281725,51179,1705.9666666666667,2.3691617278609556,1,1,3,2,2,2,b'NB_22_frameA.png',1708.3467674778608,51250.40302433582,51250,1708.3333333333333
98,1708.3555662499998,51250.66698749999,51250,1708.3333333333333,1708.91746625,51267.5239875,51267,1708.9,1710.4648505,51313.945515,51313,1710.4333333333334,2.017309899909378,1,1,2,2,2,3,b'NB_18_frameA.png',1712.4821603999094,51374.464811997284,51374,1712.4666666666667
99,1712.50680625,51375.2041875,51375,1712.5,1713.08871325,51392.6613975,51392,1713.0666666666666,1714.6159579999999,51438.47874,51438,1714.6,1.1877400484295322,2,1,2,2,2,3,b'SB_7_frameA.png',1715.8036980484294,51474.110941452884,51474,1715.8
100,1715.816412,51474.49236,51474,1715.8,1716.3983835,51491.951505,51491,1716.3666666666666,1717.9456284999999,51538.36885499999,51538,1717.9333333333334,1.638591873576388,1,0,7,1,2,3,b'NB_24_frameB_foil.png',1719.5842203735763,51587.526611207286,51587,1719.5666666666666
101,1719.6077195,51588.231585,51588,1719.6,1720.18952275,51605.6856825,51605,1720.1666666666667,1721.7371577499998,51652.11473249999,51652,1721.7333333333333,2.2256559319866938,1,1,3,2,2,2,b'NB_4_frameA.png',1723.9628136819865,51718.88441045959,51718,1723.9333333333334
102,1723.9800435,51719.401305,51719,1723.9666666666667,1724.56200475,51736.860142499994,51736,1724.5333333333333,1726.1094249999999,51783.28275,51783,1726.1,1.668134013537383,2,1,2,2,2,3,b'SB_1_frameA.png',1727.7775590135373,51833.326770406115,51833,1727.7666666666667
103,1727.784385,51833.53155,51833,1727.7666666666667,1728.34633775,51850.3901325,51850,1728.3333333333333,1729.8935789999998,51896.807369999995,51896,1729.8666666666666,1.1753083789844823,3,1,2,2,2,3,b'HB_1_frameB.png',1731.0688873789843,51932.06662136953,51932,1731.0666666666666
104,1731.0802325,51932.406975,51932,1731.0666666666666,1731.6220635,51948.661905,51948,1731.6,1733.14984325,51994.4952975,51994,1733.1333333333334,1.6936983079522179,2,1,2,2,2,3,b'SB_8_frameA.png',1734.8435415579522,52045.30624673857,52045,1734.8333333333333
105,1734.85983775,52045.7951325,52045,1734.8333333333333,1735.4016514999998,52062.049544999994,52062,1735.4,1736.929097,52107.87291,52107,1736.9,2.8297542079926643,1,1,3,2,2,2,b'NB_10_frameA.png',1739.7588512079926,52192.76553623978,52192,1739.7333333333333
106,1739.76496475,52192.9489425,52192,1739.7333333333333,1740.28670675,52208.601202499995,52208,1740.2666666666667,1741.8338875,52255.016625,52255,1741.8333333333333,1.8955138687238104,2,0,7,1,2,3,b'SB_1_frameB_foil.png',1743.7294013687238,52311.88204106171,52311,1743.7
107,1743.7411155,52312.233465,52312,1743.7333333333333,1744.2630347499999,52327.89104249999,52327,1744.2333333333333,1745.8103052499998,52374.30915749999,52374,1745.8,1.7470348767483301,1,0,7,1,2,3,b'NB_25_frameA_foil.png',1747.5573401267482,52426.72020380245,52426,1747.5333333333333
108,1747.57763175,52427.3289525,52427,1747.5666666666666,1748.11952075,52443.5856225,52443,1748.1,1749.66674475,52490.002342499996,52490,1749.6666666666667,0.2927907463190422,3,1,6,1,1,2,b'HB_1_frameA.png',1749.959535496319,52498.786064889566,52498,1749.9333333333334
109,1749.9839729999999,52499.51919,52499,1749.9666666666667,1750.5658287499998,52516.97486249999,52516,1750.5333333333333,1752.09311725,52562.7935175,52562,1752.0666666666666,3.8694763815306032,3,1,3,2,2,2,b'HB_4_frameA.png',1755.9625936315306,52678.877808945916,52678,1755.9333333333334
110,1755.97133575,52679.1400725,52679,1755.9666666666667,1756.5733304999999,52697.199915,52697,1756.5666666666666,1758.10056975,52743.0170925,52743,1758.1,0.9220358300904081,3,1,7,1,1,3,b'HB_9_frameA.png',1759.0226055800904,52770.678167402715,52770,1759.0
111,1759.0310849999998,52770.93255,52770,1759.0,1759.6132337499998,52788.3970125,52788,1759.6,1761.140534,52834.21602,52834,1761.1333333333334,1.4056525736555159,2,1,3,2,2,2,b'SB_2_frameB.png',1762.5461865736554,52876.385597209664,52876,1762.5333333333333
112,1762.564529,52876.93587,52876,1762.5333333333333,1763.1263017499998,52893.7890525,52893,1763.1,1764.67444075,52940.2332225,52940,1764.6666666666667,2.177281702647633,2,1,2,2,2,3,b'SB_2_frameA.png',1766.8517224526477,53005.55167357943,53005,1766.8333333333333
113,1766.862252,53005.86756,53005,1766.8333333333333,1767.42414175,53022.7242525,53022,1767.4,1768.9717484999999,53069.152454999996,53069,1768.9666666666667,2.2319060390118466,1,0,7,1,2,3,b'NB_8_frameB_foil.png',1771.2036545390117,53136.10963617035,53136,1771.2
114,1771.2140412499998,53136.42123749999,53136,1771.2,1771.7357944999999,53152.073834999996,53152,1771.7333333333333,1773.26312025,53197.893607499995,53197,1773.2333333333333,0.8626273113682146,1,0,7,1,2,3,b'NB_15_frameA_foil.png',1774.1257475613681,53223.772426841046,53223,1774.1
115,1774.15015925,53224.5047775,53224,1774.1333333333334,1774.671911,53240.157329999995,53240,1774.6666666666667,1776.1992619999999,53285.97786,53285,1776.1666666666667,2.337591468831306,1,1,3,2,2,2,b'NB_1_frameB.png',1778.5368534688312,53356.105604064935,53356,1778.5333333333333
116,1778.5419157499998,53356.257472499994,53356,1778.5333333333333,1779.0839147499998,53372.51744249999,53372,1779.0666666666666,1780.63117775,53418.9353325,53418,1780.6,1.4686977756437045,2,0,7,1,2,3,b'SB_5_frameA_foil.png',1782.0998755256437,53462.99626576931,53462,1782.0666666666666
117,1782.1105142499998,53463.3154275,53463,1782.1,1782.6322695,53478.968085,53478,1782.6,1784.1794989999999,53525.38497,53525,1784.1666666666667,1.789084295041448,2,1,2,2,2,3,b'SB_6_frameA.png',1785.9685832950413,53579.05749885124,53579,1785.9666666666667
118,1785.98301125,53579.4903375,53579,1785.9666666666667,1786.54487475,53596.346242499996,53596,1786.5333333333333,1788.0721327499998,53642.163982499995,53642,1788.0666666666666,1.2073155486195901,1,1,2,2,2,3,b'NB_9_frameB.png',1789.2794482986194,53678.38344895858,53678,1789.2666666666667
119,1789.300252,53679.00756,53679,1789.3,1789.88219975,53696.4659925,53696,1789.8666666666666,1791.40952125,53742.2856375,53742,1791.4,1.422221476244431,2,1,7,1,1,3,b'SB_9_frameA.png',1792.8317427262443,53784.95228178733,53784,1792.8
120,1792.85271975,53785.5815925,53785,1792.8333333333333,1793.41460225,53802.4380675,53802,1793.4,1794.94244925,53848.2734775,53848,1794.9333333333334,1.359155357120926,1,1,2,2,2,3,b'NB_14_frameA.png',1796.301604607121,53889.04813821363,53889,1796.3
121,1796.3190177499998,53889.570532499994,53889,1796.3,1796.8608295,53905.824884999995,53905,1796.8333333333333,1798.3884165,53951.652495,53951,1798.3666666666666,2.221000232876122,2,1,2,2,2,3,b'SB_4_frameA.png',1800.609416732876,54018.28250198628,54018,1800.6
122,1800.6180385,54018.541155,54018,1800.6,1801.2200902499999,54036.602707499995,54036,1801.2,1802.747257,54082.41771,54082,1802.7333333333333,2.031427183445885,1,1,2,2,2,3,b'NB_27_frameB.png',1804.7786841834459,54143.360525503376,54143,1804.7666666666667
123,1804.8008317499998,54144.024952499996,54144,1804.8,1805.40270225,54162.081067499996,54162,1805.4,1806.9301282499998,54207.9038475,54207,1806.9,1.312919306396907,1,0,6,1,2,2,b'NB_13_frameA_foil.png',1808.2430475563967,54247.2914266919,54247,1808.2333333333333
124,1808.2526624999998,54247.579874999996,54247,1808.2333333333333,1808.7944122499998,54263.83236749999,54263,1808.7666666666667,1810.3423707499999,54310.271122499995,54310,1810.3333333333333,1.7474598179851455,3,1,5,1,1,1,b'HB_5_frameA.png',1812.089830567985,54362.69491703955,54362,1812.0666666666666
125,1812.10252625,54363.0757875,54363,1812.1,1812.70456275,54381.136882499995,54381,1812.7,1814.2317927499998,54426.95378249999,54426,1814.2,1.4150864695184282,2,0,7,1,2,3,b'SB_5_frameB_foil.png',1815.6468792195183,54469.406376585546,54469,1815.6333333333334
126,1815.66761475,54470.0284425,54470,1815.6666666666667,1816.2694119999999,54488.08235999999,54488,1816.2666666666667,1817.7968899999998,54533.90669999999,54533,1817.7666666666667,1.9334754389797126,2,1,7,1,1,3,b'SB_1_frameB.png',1819.7303654389796,54591.91096316939,54591,1819.7
127,1819.7537595,54592.612785,54592,1819.7333333333333,1820.35597375,54610.6792125,54610,1820.3333333333333,1821.90328075,54657.0984225,54657,1821.9,0.14595705101555723,1,1,2,2,2,3,b'NB_21_frameB.png',1822.0492378010156,54661.477134030465,54661,1822.0333333333333
128,1822.0645734999998,54661.937204999995,54661,1822.0333333333333,1822.6264462499998,54678.793387499994,54678,1822.6,1824.1537385,54724.612154999995,54724,1824.1333333333334,1.4594873723312958,2,1,2,2,2,3,b'SB_5_frameA.png',1825.6132258723312,54768.39677616994,54768,1825.6
129,1825.62831175,54768.8493525,54768,1825.6,1826.1900194999998,54785.700585,54785,1826.1666666666667,1827.7174615,54831.523844999996,54831,1827.7,0.2739476950396238,1,1,2,2,2,3,b'NB_12_frameA.png',1827.9914091950395,54839.74227585118,54839,1827.9666666666667
130,1827.9985482499999,54839.95644749999,54839,1827.9666666666667,1828.5804927499998,54857.4147825,54857,1828.5666666666666,1830.10776425,54903.2329275,54903,1830.1,2.6523229386411913,3,0,7,1,2,3,b'HB_8_frameA_foil.png',1832.7600871886411,54982.80261565923,54982,1832.7333333333333
131,1832.7709849999999,54983.12955,54983,1832.7666666666667,1833.31282475,54999.3847425,54999,1833.3,1834.860103,55045.80309,55045,1834.8333333333333,1.723691650372075,3,1,6,1,1,2,b'HB_7_frameB.png',1836.583794650372,55097.513839511164,55097,1836.5666666666666
132,1836.5990494999999,55097.971484999995,55097,1836.5666666666666,1837.1609569999998,55114.828709999994,55114,1837.1333333333334,1838.6883945,55160.651835,55160,1838.6666666666667,0.6690092901703792,1,0,7,1,2,3,b'NB_6_frameB_foil.png',1839.3574037901703,55180.72211370511,55180,1839.3333333333333
133,1839.3806485,55181.419455,55181,1839.3666666666666,1839.9826612499999,55199.479837499995,55199,1839.9666666666667,1841.5105449999999,55245.316349999994,55245,1841.5,0.618647419932131,3,0,3,2,1,2,b'HB_5_frameB_foil.png',1842.129192419932,55263.87577259796,55263,1842.1
134,1842.13882275,55264.1646825,55264,1842.1333333333334,1842.6806525,55280.419575,55280,1842.6666666666667,1844.2079274999999,55326.237825,55326,1844.2,3.9636754040470805,3,1,4,2,2,1,b'HB_3_frameA.png',1848.171602904047,55445.14808712141,55445,1848.1666666666667
135,1848.1877427499999,55445.632282499995,55445,1848.1666666666667,1848.749636,55462.48908,55462,1848.7333333333333,1850.2769819999999,55508.30946,55508,1850.2666666666667,1.9396644365083375,2,0,6,1,2,2,b'SB_1_frameA_foil.png',1852.2166464365082,55566.49939309525,55566,1852.2
136,1852.236759,55567.10277,55567,1852.2333333333333,1852.8387785,55585.163355,55585,1852.8333333333333,1854.3665712499999,55630.997137499995,55630,1854.3333333333333,1.9936332209563261,2,1,3,2,2,2,b'SB_1_frameA.png',1856.3602044709562,55690.80613412869,55690,1856.3333333333333
137,1856.3651889999999,55690.955669999996,55690,1856.3333333333333,1856.9673679999999,55709.02103999999,55709,1856.9666666666667,1858.4947475,55754.842424999995,55754,1858.4666666666667,1.9406251636314664,1,0,3,2,1,2,b'NB_27_frameA_foil.png',1860.4353726636314,55813.06117990894,55813,1860.4333333333334
138,1860.459631,55813.788929999995,55813,1860.4333333333334,1861.061649,55831.84947,55831,1861.0333333333333,1862.60959725,55878.2879175,55878,1862.6,1.5320509138027774,2,0,6,1,2,2,b'SB_6_frameA_foil.png',1864.1416481638028,55924.24944491408,55924,1864.1333333333334
139,1864.15568825,55924.670647499996,55924,1864.1333333333334,1864.7376809999998,55942.13043,55942,1864.7333333333333,1866.26499775,55987.9499325,55987,1866.2333333333333,1.467757405689099,2,0,6,1,2,2,b'SB_7_frameB_foil.png',1867.7327551556891,56031.982654670675,56031,1867.7
140,1867.7397925,56032.193775,56032,1867.7333333333333,1868.3218777499999,56049.656332499995,56049,1868.3,1869.8497499999999,56095.49249999999,56095,1869.8333333333333,1.383601935965089,2,0,7,1,2,3,b'SB_3_frameB_foil.png',1871.233351935965,56137.00055807895,56137,1871.2333333333333
141,1871.240613,56137.218389999995,56137,1871.2333333333333,1871.8428394999999,56155.28518499999,56155,1871.8333333333333,1873.37019625,56201.1058875,56201,1873.3666666666666,-2.1916298602095594,3,0,6,1,2,2,b'HB_9_frameA_foil.png',1871.1785663897904,56135.35699169371,56135,1871.1666666666667
142,1871.18626075,56135.5878225,56135,1871.1666666666667,1871.7281692499998,56151.845077499995,56151,1871.7,1873.255623,56197.66869,56197,1873.2333333333333,1.52059503213286,2,0,2,2,1,3,b'SB_2_frameB_foil.png',1874.7762180321329,56243.286540963985,56243,1874.7666666666667
143,1874.7945169999998,56243.83551,56243,1874.7666666666667,1875.33632425,56260.0897275,56260,1875.3333333333333,1876.8636227499999,56305.9086825,56305,1876.8333333333333,1.2530529176583514,1,0,3,2,1,2,b'NB_3_frameA_foil.png',1878.1166756676582,56343.50027002975,56343,1878.1
144,1878.1319214999999,56343.957644999995,56343,1878.1,1878.6936832499998,56360.810497499995,56360,1878.6666666666667,1880.2410269999998,56407.230809999994,56407,1880.2333333333333,2.341763260710195,3,0,7,1,2,3,b'HB_3_frameA_foil.png',1882.58279026071,56477.4837078213,56477,1882.5666666666666
145,1882.60170025,56478.0510075,56478,1882.6,1883.1433025,56494.299074999995,56494,1883.1333333333334,1884.6708724999999,56540.126175,56540,1884.6666666666667,1.362250309319279,1,0,2,2,1,3,b'NB_5_frameA_foil.png',1886.0331228093191,56580.99368427957,56580,1886.0
146,1886.0427149999998,56581.281449999995,56581,1886.0333333333333,1886.60460225,56598.1380675,56598,1886.6,1888.1324015,56643.972045,56643,1888.1,1.4313861781038213,2,1,6,1,1,2,b'SB_6_frameB.png',1889.5637876781038,56686.913630343115,56686,1889.5333333333333
147,1889.57952775,56687.3858325,56687,1889.5666666666666,1890.12120925,56703.6362775,56703,1890.1,1891.668582,56750.05746,56750,1891.6666666666667,0.8729193052226947,1,1,7,1,1,3,b'NB_30_frameA.png',1892.5415013052227,56776.24503915668,56776,1892.5333333333333
148,1892.5566095,56776.698285,56776,1892.5333333333333,1893.07849825,56792.354947499996,56792,1893.0666666666666,1894.60636775,56838.1910325,56838,1894.6,2.817626813589868,1,0,2,2,1,3,b'NB_23_frameA_foil.png',1897.4239945635898,56922.719836907694,56922,1897.4
149,1897.44804475,56923.4413425,56923,1897.4333333333334,1898.05006175,56941.5018525,56941,1898.0333333333333,1899.5773017499998,56987.319052499995,56987,1899.5666666666666,3.7830096407665224,3,0,7,1,2,3,b'HB_5_frameA_foil.png',1903.3603113907664,57100.80934172299,57100,1903.3333333333333
150,1903.3820262499999,57101.46078749999,57101,1903.3666666666666,1903.9639275,57118.917825,57118,1903.9333333333334,1905.4911825,57164.735474999994,57164,1905.4666666666667,1.4217937388871178,1,1,7,1,1,3,b'NB_15_frameB.png',1906.912976238887,57207.38928716661,57207,1906.9
151,1906.9233527499998,57207.700582499994,57207,1906.9,1907.46519975,57223.9559925,57223,1907.4333333333334,1908.99250325,57269.7750975,57269,1908.9666666666667,1.5006176749893712,3,0,3,2,1,2,b'HB_4_frameA_foil.png',1910.4931209249894,57314.793627749685,57314,1910.4666666666667
152,1910.5117584999998,57315.35275499999,57315,1910.5,1911.05343675,57331.6031025,57331,1911.0333333333333,1912.601485,57378.04455,57378,1912.6,1.5295583194565552,3,1,2,2,2,3,b'HB_4_frameB.png',1914.1310433194565,57423.931299583695,57423,1914.1
153,1914.15505825,57424.6517475,57424,1914.1333333333334,1914.7169347499998,57441.5080425,57441,1914.7,1916.2444295,57487.332885,57487,1916.2333333333333,1.0499540528458056,1,1,2,2,2,3,b'NB_25_frameB.png',1917.2943835528458,57518.831506585375,57518,1917.2666666666667
154,1917.3095744999998,57519.287234999996,57519,1917.3,1917.9116609999999,57537.34983,57537,1917.9,1919.4597079999999,57583.79124,57583,1919.4333333333334,0.897186816420799,2,0,3,2,1,2,b'SB_2_frameB_foil.png',1920.3568948164207,57610.70684449262,57610,1920.3333333333333
155,1920.38088525,57611.426557499995,57611,1920.3666666666666,1920.96286375,57628.8859125,57628,1920.9333333333334,1922.5101459999998,57675.304379999994,57675,1922.5,1.7511786391332862,1,0,7,1,2,3,b'NB_10_frameB_foil.png',1924.2613246391331,57727.83973917399,57727,1924.2333333333333
156,1924.26934225,57728.080267499994,57728,1924.2666666666667,1924.831207,57744.93621,57744,1924.8,1926.3590112499999,57790.7703375,57790,1926.3333333333333,0.5461373661928519,1,1,7,1,1,3,b'NB_2_frameA.png',1926.9051486161927,57807.154458485784,57807,1926.9
157,1926.92451325,57807.7353975,57807,1926.9,1927.5064674999999,57825.194025,57825,1927.5,1929.033821,57871.01463,57871,1929.0333333333333,1.4908630163863563,2,0,2,2,1,3,b'SB_6_frameA_foil.png',1930.5246840163863,57915.74052049159,57915,1930.5
158,1930.536073,57916.08219,57916,1930.5333333333333,1931.0980252499999,57932.94075749999,57932,1931.0666666666666,1932.625255,57978.75765,57978,1932.6,0.8275007230536175,3,0,7,1,2,3,b'HB_2_frameA_foil.png',1933.4527557230535,58003.582671691605,58003,1933.4333333333334
159,1933.46911875,58004.0735625,58004,1933.4666666666667,1934.0311335,58020.934004999996,58020,1934.0,1935.55842225,58066.7526675,58066,1935.5333333333333,5.072018967084205,3,0,5,1,2,1,b'HB_1_frameA_foil.png',1940.6304412170841,58218.913236512526,58218,1940.6
160,1940.6454649999998,58219.36394999999,58219,1940.6333333333334,1941.16719825,58235.0159475,58235,1941.1666666666667,1942.6950075,58280.850225,58280,1942.6666666666667,1.2371844442154725,1,1,7,1,1,3,b'NB_17_frameB.png',1943.9321919442154,58317.96575832646,58317,1943.9
161,1943.9417624999999,58318.252875,58318,1943.9333333333334,1944.48352475,58334.5057425,58334,1944.4666666666667,1946.0108435,58380.325305,58380,1946.0,1.6985188079834188,2,1,7,1,1,3,b'SB_9_frameB.png',1947.7093623079834,58431.280869239505,58431,1947.7
162,1947.71834775,58431.5504325,58431,1947.7,1948.3203724999998,58449.611175,58449,1948.3,1949.8682884999998,58496.04865499999,58496,1949.8666666666666,3.9450619854674187,3,0,2,2,1,3,b'HB_5_frameB_foil.png',1953.8133504854673,58614.40051456402,58614,1953.8
163,1953.82279225,58614.6837675,58614,1953.8,1954.36461175,58630.9383525,58630,1954.3333333333333,1955.9119784999998,58677.35935499999,58677,1955.9,1.6405324565489536,3,1,5,1,1,1,b'HB_4_frameB.png',1957.5525109565488,58726.57532869646,58726,1957.5333333333333
164,1957.55888525,58726.7665575,58726,1957.5333333333333,1958.1006395,58743.019185,58743,1958.1,1959.6285512499999,58788.856537499996,58788,1959.6,1.6461696730343647,1,1,6,1,1,2,b'NB_8_frameA.png',1961.2747209230342,58838.24162769103,58838,1961.2666666666667
165,1961.2879767499999,58838.6393025,58838,1961.2666666666667,1961.8499427499999,58855.4982825,58855,1961.8333333333333,1963.3771352499998,58901.31405749999,58901,1963.3666666666666,2.956859029388852,1,1,6,1,1,2,b'NB_20_frameA.png',1966.3339942793887,58990.01982838166,58990,1966.3333333333333
166,1966.34674475,58990.4023425,58990,1966.3333333333333,1966.9085969999999,59007.25790999999,59007,1966.9,1968.4359545,59053.078635,59053,1968.4333333333334,1.3332130527587651,3,1,3,2,2,2,b'HB_5_frameA.png',1969.7691675527587,59093.07502658276,59093,1969.7666666666667
167,1969.78973875,59093.692162499996,59093,1969.7666666666667,1970.3915862499998,59111.747587499995,59111,1970.3666666666666,1971.95948375,59158.784512499995,59158,1971.9333333333334,1.777681446794304,1,0,2,2,1,3,b'NB_21_frameA_foil.png',1973.7371651967942,59212.114955903824,59212,1973.7333333333333
168,1973.7434225,59212.302675,59212,1973.7333333333333,1974.30542025,59229.1626075,59229,1974.3,1975.83323275,59274.9969825,59274,1975.8,1.7873614577688386,1,1,4,2,2,1,b'NB_3_frameB.png',1977.6205942077688,59328.617826233065,59328,1977.6
169,1977.6373227499998,59329.11968249999,59329,1977.6333333333334,1978.2192842499999,59346.578527499994,59346,1978.2,1979.74684925,59392.4054775,59392,1979.7333333333333,0.5475466206985402,3,1,7,1,1,3,b'HB_1_frameB.png',1980.2943958706985,59408.83187612095,59408,1980.2666666666667
170,1980.3117415,59409.352244999995,59409,1980.3,1980.893781,59426.81343,59426,1980.8666666666666,1982.42118625,59472.63558749999,59472,1982.4,1.3132359719415945,2,1,2,2,2,3,b'SB_3_frameB.png',1983.7344222219415,59512.03266665825,59512,1983.7333333333333
171,1983.74456975,59512.3370925,59512,1983.7333333333333,1984.2662927499998,59527.9887825,59527,1984.2333333333333,1985.7935822499999,59573.807467499995,59573,1985.7666666666667,1.3533582261438823,2,0,5,1,2,1,b'SB_1_frameA_foil.png',1987.1469404761438,59614.40821428431,59614,1987.1333333333334
172,1987.1672832499999,59615.018497499994,59615,1987.1666666666667,1987.7492384999998,59632.47715499999,59632,1987.7333333333333,1989.27693,59678.3079,59678,1989.2666666666667,1.3670787958808432,2,0,6,1,2,2,b'SB_2_frameA_foil.png',1990.6440087958808,59719.32026387643,59719,1990.6333333333334
173,1990.662844,59719.88532,59719,1990.6333333333334,1991.204563,59736.13689,59736,1991.2,1992.7320639999998,59781.961919999994,59781,1992.7,2.09361758609748,1,0,6,1,2,2,b'NB_1_frameA_foil.png',1994.8256815860973,59844.770447582916,59844,1994.8
174,1994.849706,59845.49118,59845,1994.8333333333333,1995.4115255,59862.345765,59862,1995.4,1996.95888075,59908.7664225,59908,1996.9333333333334,2.265488132475639,1,0,2,2,1,3,b'NB_7_frameA_foil.png',1999.2243688824756,59976.73106647427,59976,1999.2
175,1999.24469525,59977.3408575,59977,1999.2333333333333,1999.766379,59992.991369999996,59992,1999.7333333333333,2001.2940752499999,60038.822257499996,60038,2001.2666666666667,3.827017087701279,3,0,6,1,2,2,b'HB_6_frameA_foil.png',2005.1210923377012,60153.63277013104,60153,2005.1
176,2005.13351,60154.0053,60154,2005.1333333333334,2005.69544125,60170.8632375,60170,2005.6666666666667,2007.2426014999999,60217.278045,60217,2007.2333333333333,1.576261706470632,2,1,5,1,1,1,b'SB_1_frameB.png',2008.8188632064705,60264.565896194115,60264,2008.8
177,2008.83790875,60265.1372625,60265,2008.8333333333333,2009.3379145,60280.137435,60280,2009.3333333333333,2010.882484,60326.474519999996,60326,2010.8666666666666,1.2889998923724306,2,1,7,1,1,3,b'SB_30_frameA.png',2012.1714838923724,60365.14451677117,60365,2012.1666666666667
178,2012.1994432499998,60365.983297499995,60365,2012.1666666666667,2012.72031025,60381.6093075,60381,2012.7,2014.24700975,60427.4102925,60427,2014.2333333333333,1.131639657870437,2,0,6,1,2,2,b'SB_30_frameB_foil.png',2015.3786494078704,60461.35948223611,60461,2015.3666666666666
179,2015.42532925,60462.7598775,60462,2015.4,2015.94286075,60478.285822499995,60478,2015.9333333333334,2017.45137275,60523.5411825,60523,2017.4333333333334,-0.5490880101583571,3,1,6,1,1,2,b'HB_30_frameB.png',2016.9022847398417,60507.06854219525,60507,2016.9
180,2016.9266289999998,60507.79886999999,60507,2016.9,2017.47446675,60524.2340025,60524,2017.4666666666667,2019.0051657499998,60570.15497249999,60570,2019.0,0.48130140760849827,3,0,6,1,2,2,b'HB_30_frameA_foil.png',2019.4864671576083,60584.59401472825,60584,2019.4666666666667
