trial_num,fixcross_time,fixation_HZ,fixation_bin,fixation_regarded,start_time,Fstart_HZ,Fstart_bin,Fstart_regarded,stop_time,Fstop_HZ,Fstop_bin,Fstop_regarded,RT,boundary_type,stimuli_type,resp_value,old_new,accuracy,confidence,frameName,response_time,response_HZ,response_bin,response_regarded
1,1128.1839505,33845.518515,33845,1128.1666666666667,1128.70583975,33861.1751925,33861,1128.7,1130.2606389999999,33907.819169999995,33907,1130.2333333333333,1.266096959136803,1,1,2,2,2,3,b'NB_11_frameB.png',1131.5267359591367,33945.8020787741,33945,1131.5
2,1131.556576,33946.69728,33946,1131.5333333333333,1132.13876975,33964.1630925,33964,1132.1333333333334,1133.66653675,34009.9961025,34009,1133.6333333333334,1.0151791690138907,2,0,6,1,2,2,b'SB_6_frameA_foil.png',1134.6817159190139,34040.451477570416,34040,1134.6666666666667
3,1134.7078944999998,34041.236834999996,34041,1134.7,1135.2296615,34056.889845,34056,1135.2,1136.75746475,34102.7239425,34102,1136.7333333333333,1.557136476516007,3,1,2,2,2,3,b'HB_2_frameB.png',1138.314601226516,34149.43803679548,34149,1138.3
4,1138.3319152499998,34149.95745749999,34149,1138.3,1138.8538577499999,34165.615732499995,34165,1138.8333333333333,1140.38246975,34211.4740925,34211,1140.3666666666666,2.8812874624284177,3,1,2,2,2,3,b'HB_3_frameA.png',1143.2637572124283,34297.91271637285,34297,1143.2333333333333
5,1143.277253,34298.31759,34298,1143.2666666666667,1143.7993307499999,34313.979922499995,34313,1143.7666666666667,1145.34988125,34360.4964375,34360,1145.3333333333333,-0.384088294972571,2,1,3,2,2,2,b'SB_4_frameB.png',1144.9657929550274,34348.97378865082,34348,1144.9333333333334
6,1144.98246275,34349.4738825,34349,1144.9666666666667,1145.56441275,34366.9323825,34366,1145.5333333333333,1147.1117785,34413.353355,34413,1147.1,1.3140444379864675,2,1,3,2,2,2,b'SB_5_frameA.png',1148.4258229379864,34452.774688139594,34452,1148.4
7,1148.44307275,34453.2921825,34453,1148.4333333333334,1148.96482775,34468.9448325,34468,1148.9333333333334,1150.49265175,34514.779552500004,34514,1150.4666666666667,1.753599020850288,3,0,7,1,2,3,b'HB_8_frameA_foil.png',1152.2462507708503,34567.38752312551,34567,1152.2333333333333
8,1152.2682264999999,34568.046794999995,34568,1152.2666666666667,1152.85031975,34585.5095925,34585,1152.8333333333333,1154.377456,34631.32368,34631,1154.3666666666666,2.6229694620715236,1,0,7,1,2,3,b'NB_10_frameB_foil.png',1157.0004254620715,34710.01276386214,34710,1157.0
9,1157.02305375,34710.6916125,34710,1157.0,1157.6051605,34728.154815,34728,1157.6,1159.1521725,34774.565175,34774,1159.1333333333334,0.25464780007223453,2,0,6,1,2,2,b'SB_7_frameB_foil.png',1159.4068203000722,34782.20460900217,34782,1159.4
10,1159.41735125,34782.5205375,34782,1159.4,1159.95942775,34798.7828325,34798,1159.9333333333334,1161.4866084999999,34844.598255,34844,1161.4666666666667,1.6830702867996479,1,0,7,1,2,3,b'NB_7_frameA_foil.png',1163.1696787867995,34895.09036360399,34895,1163.1666666666667
11,1163.19352125,34895.8056375,34895,1163.1666666666667,1163.79576,34913.8728,34913,1163.7666666666667,1165.3429285,34960.287855,34960,1165.3333333333333,1.4615969668354865,3,1,2,2,2,3,b'HB_4_frameA.png',1166.8045254668355,35004.13576400506,35004,1166.8
12,1166.8144439999999,35004.43332,35004,1166.8,1167.35641325,35020.6923975,35020,1167.3333333333333,1168.8837939999999,35066.51381999999,35066,1168.8666666666666,4.133275918566824,1,0,7,1,2,3,b'NB_25_frameA_foil.png',1173.0170699185667,35190.512097557,35190,1173.0
13,1173.03709775,35191.1129325,35191,1173.0333333333333,1173.61885375,35208.5656125,35208,1173.6,1175.1666129999999,35254.99838999999,35254,1175.1333333333334,1.9084825758291117,3,1,2,2,2,3,b'HB_3_frameA.png',1177.075095575829,35312.25286727487,35312,1177.0666666666666
14,1177.0845474999999,35312.536425,35312,1177.0666666666666,1177.586226,35327.58678,35327,1177.5666666666666,1179.13340675,35374.0022025,35374,1179.1333333333334,0.36002612486936414,3,0,7,1,2,3,b'HB_6_frameB_foil.png',1179.4934328748693,35384.80298624608,35384,1179.4666666666667
15,1179.51484425,35385.4453275,35385,1179.5,1180.09681575,35402.9044725,35402,1180.0666666666666,1181.64413075,35449.3239225,35449,1181.6333333333334,2.104880367731994,2,0,6,1,2,2,b'SB_3_frameB_foil.png',1183.749011117732,35512.47033353196,35512,1183.7333333333333
16,1183.76851725,35513.055517500004,35513,1183.7666666666667,1184.2900889999999,35528.70267,35528,1184.2666666666667,1185.83749275,35575.124782499995,35575,1185.8333333333333,0.0023013070258457446,1,0,7,1,2,3,b'NB_4_frameB_foil.png',1185.8397940570258,35575.193821710775,35575,1185.8333333333333
17,1185.8631735,35575.89520499999,35575,1185.8333333333333,1186.425043,35592.75129,35592,1186.4,1187.9522565,35638.567695,35638,1187.9333333333334,1.063808147701593,3,0,7,1,2,3,b'HB_7_frameB_foil.png',1189.0160646477016,35670.48193943105,35670,1189.0
18,1189.0245375,35670.736124999996,35670,1189.0,1189.6266295,35688.798885000004,35688,1189.6,1191.1540575,35734.621725,35734,1191.1333333333334,-0.2554977414249606,1,1,3,2,2,2,b'NB_6_frameA.png',1190.898559758575,35726.95679275725,35726,1190.8666666666666
19,1190.9109205,35727.327615,35727,1190.9,1191.45291125,35743.5873375,35743,1191.4333333333334,1193.000884,35790.02652,35790,1193.0,0.30667912490935123,1,0,7,1,2,3,b'NB_14_frameB_foil.png',1193.3075631249094,35799.22689374728,35799,1193.3
20,1193.3232062499999,35799.6961875,35799,1193.3,1193.90514175,35817.1542525,35817,1193.9,1195.432249,35862.967469999996,35862,1195.4,0.8525329178721677,2,1,4,2,2,1,b'SB_2_frameA.png',1196.2847819178721,35888.543457536165,35888,1196.2666666666667
21,1196.2951484999999,35888.85445499999,35888,1196.2666666666667,1196.85706575,35905.7119725,35905,1196.8333333333333,1198.3842654999999,35951.527964999994,35951,1198.3666666666666,1.8867102259464446,3,0,7,1,2,3,b'HB_2_frameB_foil.png',1200.2709757259463,36008.12927177839,36008,1200.2666666666667
22,1200.27946225,36008.3838675,36008,1200.2666666666667,1200.8814955,36026.444865,36026,1200.8666666666666,1202.428653,36072.85959,36072,1202.4,1.6677341761194384,2,0,6,1,2,2,b'SB_4_frameA_foil.png',1204.0963871761194,36122.89161528358,36122,1204.0666666666666
23,1204.10249575,36123.074872499994,36123,1204.1,1204.70475425,36141.1426275,36141,1204.7,1206.23192525,36186.9577575,36186,1206.2,0.4759284881010899,2,0,6,1,2,2,b'SB_4_frameB_foil.png',1206.707853738101,36201.23561214303,36201,1206.7
24,1206.7252799999999,36201.7584,36201,1206.7,1207.28734725,36218.6204175,36218,1207.2666666666667,1208.8345427499999,36265.0362825,36265,1208.8333333333333,1.8751646709538363,1,0,7,1,2,3,b'NB_23_frameA_foil.png',1210.7097074209537,36321.29122262861,36321,1210.7
25,1210.7332625,36321.997875,36321,1210.7,1211.2750879999999,36338.25264,36338,1211.2666666666667,1212.82217075,36384.665122499995,36384,1212.8,1.26425088557653,3,1,3,2,2,2,b'HB_1_frameA.png',1214.0864216355765,36422.592649067294,36422,1214.0666666666666
26,1214.10257525,36423.0772575,36423,1214.1,1214.6643307499999,36439.9299225,36439,1214.6333333333334,1216.1917015,36485.751045,36485,1216.1666666666667,-0.5795083194832387,3,0,7,1,2,3,b'HB_9_frameB_foil.png',1215.6121931805167,36468.3657954155,36468,1215.6
27,1215.620608,36468.618239999996,36468,1215.6,1216.12232125,36483.669637499996,36483,1216.1,1217.66957075,36530.0871225,36530,1217.6666666666667,3.5958732728070117,2,0,6,1,2,2,b'SB_1_frameB_foil.png',1221.265444022807,36637.96332068421,36637,1221.2333333333333
28,1221.2745645,36638.236935,36638,1221.2666666666667,1221.7961464999998,36653.884394999994,36653,1221.7666666666667,1223.3234085,36699.702255,36699,1223.3,1.6181646707450454,1,1,2,2,2,3,b'NB_14_frameA.png',1224.941573170745,36748.24719512235,36748,1224.9333333333334
29,1224.9527305,36748.581914999995,36748,1224.9333333333334,1225.514827,36765.44481,36765,1225.5,1227.061985,36811.85955,36811,1227.0333333333333,1.690252221094397,2,1,3,2,2,2,b'SB_4_frameB.png',1228.7522372210944,36862.56711663283,36862,1228.7333333333333
30,1228.7672069999999,36863.016209999994,36863,1228.7666666666667,1229.329248,36879.87744,36879,1229.3,1230.85639125,36925.6917375,36925,1230.8333333333333,1.2710188022585953,2,0,6,1,2,2,b'SB_3_frameB_foil.png',1232.1274100522585,36963.82230156776,36963,1232.1
31,1232.1360445,36964.081335,36964,1232.1333333333334,1232.6980892499998,36980.942677499996,36980,1232.6666666666667,1234.2452847499999,37027.3585425,37027,1234.2333333333333,0.058088609001288205,2,1,3,2,2,2,b'SB_1_frameB.png',1234.3033733590012,37029.101200770034,37029,1234.3
32,1234.3150732499998,37029.452197499995,37029,1234.3,1234.8166267499998,37044.4988025,37044,1234.8,1236.34397275,37090.319182499996,37090,1236.3333333333333,2.079972609054721,3,1,3,2,2,2,b'HB_1_frameB.png',1238.4239453590546,37152.718360771636,37152,1238.4
33,1238.4454965,37153.364895,37153,1238.4333333333334,1238.94735475,37168.4206425,37168,1238.9333333333334,1240.49452475,37214.8357425,37214,1240.4666666666667,1.9840748195092601,2,0,6,1,2,2,b'SB_6_frameA_foil.png',1242.4785995695092,37274.35798708528,37274,1242.4666666666667
34,1242.48769075,37274.6307225,37274,1242.4666666666667,1243.049346,37291.48038,37291,1243.0333333333333,1244.5767945,37337.303835,37337,1244.5666666666666,1.3832159164612676,1,0,7,1,2,3,b'NB_9_frameA_foil.png',1245.9600104164613,37378.80031249384,37378,1245.9333333333334
35,1245.96657425,37378.9972275,37378,1245.9333333333334,1246.5287632499999,37395.862897499996,37395,1246.5,1248.056077,37441.68231,37441,1248.0333333333333,2.9158782530555527,1,1,2,2,2,3,b'NB_10_frameA.png',1250.9719552530555,37529.158657591666,37529,1250.9666666666667
36,1250.9818315,37529.454945,37529,1250.9666666666667,1251.543516,37546.305479999995,37546,1251.5333333333333,1253.0708865,37592.126594999994,37592,1253.0666666666666,0.2953929990553661,3,0,6,1,2,2,b'HB_7_frameA_foil.png',1253.3662794990553,37600.98838497166,37600,1253.3333333333333
37,1253.3809025,37601.427075,37601,1253.3666666666666,1253.9226285,37617.678855,37617,1253.9,1255.450176,37663.505280000005,37663,1255.4333333333334,1.4949620201246034,1,1,2,2,2,3,b'NB_21_frameB.png',1256.9451380201247,37708.35414060374,37708,1256.9333333333334
38,1256.9686374999999,37709.059125,37709,1256.9666666666667,1257.49031625,37724.7094875,37724,1257.4666666666667,1259.0577094999999,37771.731284999994,37771,1259.0333333333333,0.3855872198475936,3,0,5,1,2,1,b'HB_8_frameA_foil.png',1259.4432967198475,37783.29890159542,37783,1259.4333333333334
39,1259.456776,37783.70328,37783,1259.4333333333334,1259.9986635,37799.959905,37799,1259.9666666666667,1261.54609875,37846.3829625,37846,1261.5333333333333,1.826174143727485,3,0,6,1,2,2,b'HB_1_frameB_foil.png',1263.3722728937275,37901.168186811825,37901,1263.3666666666666
40,1263.3893054999999,37901.679164999994,37901,1263.3666666666666,1263.9311827499998,37917.9354825,37917,1263.9,1265.458647,37963.75941,37963,1265.4333333333334,1.2556777956713177,3,0,6,1,2,2,b'HB_1_frameA_foil.png',1266.7143247956712,38001.42974387014,38001,1266.7
41,1266.72494925,38001.7484775,38001,1266.7,1267.2267574999998,38016.802724999994,38016,1267.2,1268.7539705,38062.619114999994,38062,1268.7333333333333,0.32627307302982445,2,0,5,1,2,1,b'SB_9_frameA_foil.png',1269.0802435730297,38072.40730719089,38072,1269.0666666666666
42,1269.0896344999999,38072.689034999996,38072,1269.0666666666666,1269.6516394999999,38089.549184999996,38089,1269.6333333333334,1271.19886725,38135.966017499995,38135,1271.1666666666667,0.7979913535680225,3,1,2,2,2,3,b'HB_2_frameA.png',1271.996858603568,38159.90575810704,38159,1271.9666666666667
43,1272.0213795,38160.641384999995,38160,1272.0,1272.563408,38176.902239999996,38176,1272.5333333333333,1274.11056925,38223.3170775,38223,1274.1,0.11517389805771927,3,1,2,2,2,3,b'HB_7_frameA.png',1274.2257431480577,38226.77229444173,38226,1274.2
44,1274.23640375,38227.092112499995,38227,1274.2333333333333,1274.8185385,38244.556155,38244,1274.8,1276.3459867499998,38290.3796025,38290,1276.3333333333333,0.9320123334371146,3,1,2,2,2,3,b'HB_5_frameA.png',1277.277999083437,38318.339972503105,38318,1277.2666666666667
45,1277.2962915,38318.888745000004,38318,1277.2666666666667,1277.798083,38333.942489999994,38333,1277.7666666666667,1279.34537775,38380.3613325,38380,1279.3333333333333,2.367787312431801,1,0,7,1,2,3,b'NB_18_frameB_foil.png',1281.7131650624317,38451.39495187295,38451,1281.7
46,1281.7188105,38451.564315,38451,1281.7,1282.32083075,38469.6249225,38469,1282.3,1283.8680077499998,38516.040232499996,38516,1283.8666666666666,-0.4032939452154096,3,1,3,2,2,2,b'HB_3_frameB.png',1283.4647138047844,38503.94141414353,38503,1283.4333333333334
47,1283.47843625,38504.3530875,38504,1283.4666666666667,1284.020257,38520.60771,38520,1284.0,1285.54740675,38566.4222025,38566,1285.5333333333333,3.818426977129775,1,1,2,2,2,3,b'NB_29_frameB.png',1289.3658337271297,38680.97501181389,38680,1289.3333333333333
48,1289.38139175,38681.441752499995,38681,1289.3666666666666,1289.963569,38698.90707,38698,1289.9333333333334,1291.49067075,38744.720122499995,38744,1291.4666666666667,1.765684486941609,3,0,7,1,2,3,b'HB_5_frameA_foil.png',1293.2563552369415,38797.69065710824,38797,1293.2333333333333
49,1293.273096,38798.192879999995,38798,1293.2666666666667,1293.83504025,38815.0512075,38815,1293.8333333333333,1295.3624057499999,38860.8721725,38860,1295.3333333333333,0.24163143328269143,2,1,4,2,2,1,b'SB_6_frameB.png',1295.6040371832826,38868.12111549848,38868,1295.6
50,1295.6167612499999,38868.5028375,38868,1295.6,1296.1786475,38885.359424999995,38885,1296.1666666666667,1297.7056605,38931.169815,38931,1297.7,1.3987268629821301,3,0,6,1,2,2,b'HB_1_frameB_foil.png',1299.1043873629822,38973.131620889464,38973,1299.1
51,1299.12730225,38973.8190675,38973,1299.1,1299.7092225,38991.276674999994,38991,1299.7,1301.2364209999998,39037.09262999999,39037,1301.2333333333333,0.34892032764423675,3,0,7,1,2,3,b'HB_5_frameB_foil.png',1301.585341327644,39047.56023982932,39047,1301.5666666666666
52,1301.5983649999998,39047.95095,39047,1301.5666666666666,1302.12024475,39063.6073425,39063,1302.1,1303.6472925,39109.418775,39109,1303.6333333333334,0.7736210988221046,2,0,5,1,2,1,b'SB_1_frameB_foil.png',1304.4209135988222,39132.62740796467,39132,1304.4
53,1304.4383249999998,39133.14975,39133,1304.4333333333334,1305.04063625,39151.2190875,39151,1305.0333333333333,1306.5880805,39197.642414999995,39197,1306.5666666666666,0.8222717399476096,2,1,3,2,2,2,b'SB_3_frameB.png',1307.4103522399475,39222.31056719842,39222,1307.4
54,1307.424118,39222.72354,39222,1307.4,1308.006287,39240.18861,39240,1308.0,1309.53351925,39286.0055775,39286,1309.5333333333333,1.294572963139899,3,0,7,1,2,3,b'HB_3_frameA_foil.png',1310.8280922131398,39324.8427663942,39324,1310.8
55,1310.8344785,39325.034354999996,39325,1310.8333333333333,1311.3965795,39341.897385,39341,1311.3666666666666,1312.92376975,39387.7130925,39387,1312.9,3.969047237213317,3,0,6,1,2,2,b'HB_2_frameB_foil.png',1316.8928169872133,39506.7845096164,39506,1316.8666666666666
56,1316.91505825,39507.451747499996,39507,1316.9,1317.4569125,39523.707375,39523,1317.4333333333334,1318.98445875,39569.533762499996,39569,1318.9666666666667,1.6534751994049657,3,0,6,1,2,2,b'HB_3_frameB_foil.png',1320.637933949405,39619.13801848215,39619,1320.6333333333334
57,1320.659619,39619.788570000004,39619,1320.6333333333334,1321.221521,39636.64563,39636,1321.2,1322.7486724999999,39682.460175,39682,1322.7333333333333,3.205806493895352,1,0,7,1,2,3,b'NB_15_frameA_foil.png',1325.9544789938952,39778.63436981686,39778,1325.9333333333334
58,1325.97790225,39779.3370675,39779,1325.9666666666667,1326.5196865,39795.590595,39795,1326.5,1328.067036,39842.01108,39842,1328.0666666666666,1.0574005345069963,1,0,7,1,2,3,b'NB_2_frameB_foil.png',1329.124436534507,39873.733096035205,39873,1329.1
59,1329.142484,39874.27452,39874,1329.1333333333334,1329.7246965,39891.740894999995,39891,1329.7,1331.25171675,39937.5515025,39937,1331.2333333333333,4.591686237057047,1,1,2,2,2,3,b'NB_18_frameA.png',1335.843402987057,40075.30208961171,40075,1335.8333333333333
60,1335.86601675,40075.9805025,40075,1335.8333333333333,1336.4481127499998,40093.443382499994,40093,1336.4333333333334,1337.995338,40139.86014,40139,1337.9666666666667,2.9627968429197153,1,1,2,2,2,3,b'NB_22_frameA.png',1340.9581348429197,40228.74404528759,40228,1340.9333333333334
61,1340.9763074999998,40229.28922499999,40229,1340.9666666666667,1341.51811,40245.5433,40245,1341.5,1343.0654849999999,40291.96455,40291,1343.0333333333333,1.996360610253305,1,1,3,2,2,2,b'NB_27_frameB.png',1345.0618456102532,40351.855368307595,40351,1345.0333333333333
62,1345.08003825,40352.4011475,40352,1345.0666666666666,1345.6822705,40370.468114999996,40370,1345.6666666666667,1347.22959425,40416.8878275,40416,1347.2,1.8029853177279165,3,1,2,2,2,3,b'HB_8_frameB.png',1349.032579567728,40470.97738703184,40470,1349.0
63,1349.03928275,40471.1784825,40471,1349.0333333333333,1349.581103,40487.43309,40487,1349.5666666666666,1351.128272,40533.848159999994,40533,1351.1,0.872086638501969,2,1,4,2,2,1,b'SB_2_frameA.png',1352.000358638502,40560.010759155055,40560,1352.0
64,1352.0134444999999,40560.403334999995,40560,1352.0,1352.61561975,40578.4685925,40578,1352.6,1354.16354925,40624.9064775,40624,1354.1333333333334,0.304069515805395,1,0,7,1,2,3,b'NB_28_frameB_foil.png',1354.4676187658054,40634.02856297416,40634,1354.4666666666667
65,1354.4910902499998,40634.73270749999,40634,1354.4666666666667,1355.0528534999999,40651.58560499999,40651,1355.0333333333333,1356.5799865,40697.399594999995,40697,1356.5666666666666,3.509941437602947,2,0,5,1,2,1,b'SB_9_frameB_foil.png',1360.0899279376029,40802.697838128086,40802,1360.0666666666666
66,1360.10357475,40803.1072425,40803,1360.1,1360.64538975,40819.3616925,40819,1360.6333333333334,1362.17253525,40865.1760575,40865,1362.1666666666667,2.339975181445425,2,1,3,2,2,2,b'SB_7_frameA.png',1364.5125104314454,40935.37531294336,40935,1364.5
67,1364.52288175,40935.6864525,40935,1364.5,1365.0848465,40952.545394999994,40952,1365.0666666666666,1366.6120285,40998.360855,40998,1366.6,2.8369076281726393,3,0,6,1,2,2,b'HB_4_frameA_foil.png',1369.4489361281726,41083.468083845175,41083,1369.4333333333334
68,1369.45865725,41083.7597175,41083,1369.4333333333334,1370.0406457499998,41101.219372499996,41101,1370.0333333333333,1371.5680495,41147.041484999994,41147,1371.5666666666666,3.158236941065752,2,1,3,2,2,2,b'SB_3_frameA.png',1374.7262864410657,41241.78859323197,41241,1374.7
69,1374.75097125,41242.5291375,41242,1374.7333333333333,1375.29295525,41258.7886575,41258,1375.2666666666667,1376.8401582499998,41305.20474749999,41305,1376.8333333333333,3.9168977823828754,1,1,2,2,2,3,b'NB_7_frameB.png',1380.7570560323827,41422.71168097148,41422,1380.7333333333333
70,1380.7696125,41423.088375,41423,1380.7666666666667,1381.31167975,41439.3503925,41439,1381.3,1382.83871725,41485.1615175,41485,1382.8333333333333,1.5483248421612643,1,0,6,1,2,2,b'NB_3_frameA_foil.png',1384.3870420921612,41531.61126276484,41531,1384.3666666666666
71,1384.39574625,41531.8723875,41531,1384.3666666666666,1384.93768775,41548.1306325,41548,1384.9333333333334,1386.484854,41594.545620000004,41594,1386.4666666666667,1.5453777435977827,1,1,3,2,2,2,b'NB_5_frameB.png',1388.0302317435978,41640.90695230794,41640,1388.0
72,1388.0393964999998,41641.181894999994,41641,1388.0333333333333,1388.54109725,41656.2329175,41656,1388.5333333333333,1390.0686249999999,41702.05875,41702,1390.0666666666666,1.7323507236683326,1,1,3,2,2,2,b'NB_19_frameB.png',1391.8009757236682,41754.029271710046,41754,1391.8
73,1391.81907125,41754.5721375,41754,1391.8,1392.4009194999999,41772.027584999996,41772,1392.4,1393.9281655,41817.844965,41817,1393.9,1.7924932212486056,3,1,4,2,2,1,b'HB_5_frameA.png',1395.7206587212486,41871.619761637456,41871,1395.7
74,1395.7446747499998,41872.340242499995,41872,1395.7333333333333,1396.2866425,41888.599275,41888,1396.2666666666667,1397.83394725,41935.018417499996,41935,1397.8333333333333,-1.5048189981876021,2,0,5,1,2,1,b'SB_4_frameA_foil.png',1396.3291282518123,41889.87384755437,41889,1396.3
75,1396.349376,41890.48128,41890,1396.3333333333333,1396.93156125,41907.9468375,41907,1396.9,1398.458696,41953.760879999994,41953,1398.4333333333334,1.4712832056977732,3,0,5,1,2,1,b'HB_4_frameB_foil.png',1399.9299792056977,41997.89937617093,41997,1399.9
76,1399.9401249999999,41998.20374999999,41998,1399.9333333333334,1400.522178,42015.66534,42015,1400.5,1402.0494999999999,42061.48499999999,42061,1402.0333333333333,1.5248612549223708,3,1,2,2,2,3,b'HB_4_frameB.png',1403.5743612549222,42107.230837647665,42107,1403.5666666666666
77,1403.5861747499998,42107.5852425,42107,1403.5666666666666,1404.0878455,42122.635365,42122,1404.0666666666666,1405.615043,42168.45129,42168,1405.6,1.7353532333270323,3,1,4,2,2,1,b'HB_6_frameB.png',1407.350396233327,42220.51188699981,42220,1407.3333333333333
78,1407.3704785,42221.114355,42221,1407.3666666666666,1407.9526485,42238.579455,42238,1407.9333333333334,1409.47973175,42284.391952499995,42284,1409.4666666666667,1.9890489109741338,1,0,6,1,2,2,b'NB_6_frameB_foil.png',1411.468780660974,42344.063419829225,42344,1411.4666666666667
79,1411.4777609999999,42344.33283,42344,1411.4666666666667,1411.999593,42359.98779,42359,1411.9666666666667,1413.5268844999998,42405.806534999996,42405,1413.5,4.582517399629523,1,0,6,1,2,2,b'NB_8_frameB_foil.png',1418.1094018996293,42543.28205698888,42543,1418.1
80,1418.1268587499999,42543.80576249999,42543,1418.1,1418.7091005,42561.273015,42561,1418.7,1420.25640275,42607.6920825,42607,1420.2333333333333,3.459559183178044,1,0,6,1,2,2,b'NB_30_frameB_foil.png',1423.715961933178,42711.47885799534,42711,1423.7
81,1423.7333952499998,42712.00185749999,42712,1423.7333333333333,1424.33562575,42730.0687725,42730,1424.3333333333333,1425.86279175,42775.8837525,42775,1425.8333333333333,1.5891252596486538,1,0,7,1,2,3,b'NB_17_frameA_foil.png',1427.4519170096487,42823.55751028946,42823,1427.4333333333334
82,1427.45973725,42823.7921175,42823,1427.4333333333334,1428.041772,42841.25316,42841,1428.0333333333333,1429.5689725,42887.069175,42887,1429.5666666666666,1.2713543566251246,2,1,4,2,2,1,b'SB_1_frameB.png',1430.840326856625,42925.20980569875,42925,1430.8333333333333
83,1430.8466025,42925.398075,42925,1430.8333333333333,1431.4084847499998,42942.2545425,42942,1431.4,1432.935558,42988.066739999995,42988,1432.9333333333334,3.768815985061565,1,1,2,2,2,3,b'NB_9_frameB.png',1436.7043739850615,43101.13121955184,43101,1436.7
84,1436.7194152499999,43101.58245749999,43101,1436.7,1437.3013644999999,43119.040935,43119,1437.3,1438.8485342499998,43165.4560275,43165,1438.8333333333333,1.2348993685905043,1,1,2,2,2,3,b'NB_16_frameA.png',1440.0834336185903,43202.50300855771,43202,1440.0666666666666
85,1440.0936749999998,43202.810249999995,43202,1440.0666666666666,1440.615458,43218.46374,43218,1440.6,1442.1425205,43264.275615,43264,1442.1333333333334,1.4178472795920243,2,0,5,1,2,1,b'SB_2_frameA_foil.png',1443.560367779592,43306.81103338776,43306,1443.5333333333333
86,1443.56656875,43306.9970625,43306,1443.5333333333333,1444.0681889999998,43322.04566999999,43322,1444.0666666666666,1445.59567975,43367.8703925,43367,1445.5666666666666,0.30150788064838707,1,1,2,2,2,3,b'NB_30_frameA.png',1445.8971876306484,43376.91562891945,43376,1445.8666666666666
87,1445.918496,43377.55488,43377,1445.9,1446.52056075,43395.6168225,43395,1446.5,1448.0677329999999,43442.031989999996,43442,1448.0666666666666,2.3767157542715722,3,1,3,2,2,2,b'HB_2_frameA.png',1450.4444487542714,43513.33346262814,43513,1450.4333333333334
88,1450.46781175,43514.0343525,43514,1450.4666666666667,1450.9695957499998,43529.08787249999,43529,1450.9666666666667,1452.49674,43574.902200000004,43574,1452.4666666666667,1.2179179101931368,2,1,3,2,2,2,b'SB_7_frameB.png',1453.7146579101932,43611.439737305795,43611,1453.7
89,1453.722536,43611.67608,43611,1453.7,1454.26434,43627.930199999995,43627,1454.2333333333333,1455.7915925,43673.747774999996,43673,1455.7666666666667,3.496025067697701,2,1,3,2,2,2,b'SB_9_frameB.png',1459.2876175676977,43778.62852703093,43778,1459.2666666666667
90,1459.2964802499998,43778.894407499996,43778,1459.2666666666667,1459.8383175,43795.149525,43795,1459.8333333333333,1461.36545975,43840.9637925,43840,1461.3333333333333,0.9931195262256551,2,1,4,2,2,1,b'SB_2_frameA.png',1462.3585792762256,43870.75737828677,43870,1462.3333333333333
91,1462.3751149999998,43871.25345,43871,1462.3666666666666,1462.9170735,43887.512205,43887,1462.9,1464.444523,43933.33569,43933,1464.4333333333334,0.6546664267248161,2,1,4,2,2,1,b'SB_6_frameA.png',1465.0991894267247,43952.97568280174,43952,1465.0666666666666
92,1465.1120825,43953.362475,43953,1465.1,1465.6940445,43970.821335,43970,1465.6666666666667,1467.22118975,44016.6356925,44016,1467.2,1.7196859246641907,3,0,6,1,2,2,b'HB_1_frameA_foil.png',1468.940875674664,44068.226270239924,44068,1468.9333333333334
93,1468.963287,44068.898610000004,44068,1468.9333333333334,1469.48525275,44084.5575825,44084,1469.4666666666667,1471.012491,44130.374729999996,44130,1471.0,1.9584443194730738,2,1,3,2,2,2,b'SB_8_frameB.png',1472.970935319473,44189.12805958419,44189,1472.9666666666667
94,1472.9767434999999,44189.302305,44189,1472.9666666666667,1473.5387429999998,44206.16228999999,44206,1473.5333333333333,1475.0859045,44252.577135,44252,1475.0666666666666,1.0992279750958005,1,1,2,2,2,3,b'NB_3_frameB.png',1476.1851324750958,44285.55397425287,44285,1476.1666666666667
95,1476.20032875,44286.009862499996,44286,1476.2,1476.76220275,44302.8660825,44302,1476.7333333333333,1478.3094015,44349.282045,44349,1478.3,0.9015644645869543,1,1,2,2,2,3,b'NB_23_frameB.png',1479.2109659645869,44376.32897893761,44376,1479.2
96,1479.2274375,44376.823124999995,44376,1479.2,1479.7490865,44392.472595,44392,1479.7333333333333,1481.2961065,44438.883195,44438,1481.2666666666667,0.1522311158132652,2,1,3,2,2,2,b'SB_1_frameA.png',1481.4483376158132,44443.4501284744,44443,1481.4333333333334
97,1481.4722265,44444.166795,44444,1481.4666666666667,1482.0742867499998,44462.22860249999,44462,1482.0666666666666,1483.60210425,44508.0631275,44508,1483.6,2.463173435011413,3,1,6,1,1,2,b'HB_8_frameB.png',1486.0652776850113,44581.95833055034,44581,1486.0333333333333
98,1486.0828995,44582.486984999996,44582,1486.0666666666666,1486.5846482499999,44597.5394475,44597,1486.5666666666666,1488.1319457499999,44643.9583725,44643,1488.1,1.5312425051647551,1,1,2,2,2,3,b'NB_4_frameA.png',1489.6631882551646,44689.895647654936,44689,1489.6333333333334
99,1489.667984,44690.03952,44690,1489.6666666666667,1490.270174,44708.10522,44708,1490.2666666666667,1491.7974675,44753.924025,44753,1491.7666666666667,3.471416659390343,2,1,3,2,2,2,b'SB_8_frameA.png',1495.2688841593904,44858.06652478171,44858,1495.2666666666667
100,1495.28691575,44858.6074725,44858,1495.2666666666667,1495.808446,44874.25338,44874,1495.8,1497.3361495,44920.084485,44920,1497.3333333333333,2.7579764175711716,2,1,3,2,2,2,b'SB_5_frameB.png',1500.094125917571,45002.823777527134,45002,1500.0666666666666
101,1500.11925675,45003.5777025,45003,1500.1,1500.6611415,45019.834245,45019,1500.6333333333334,1502.18843675,45065.6531025,45065,1502.1666666666667,1.36964149010646,3,1,6,1,1,2,b'HB_7_frameB.png',1503.5580782401064,45106.742347203195,45106,1503.5333333333333
102,1503.57985725,45107.3957175,45107,1503.5666666666666,1504.101588,45123.04764,45123,1504.1,1505.64955225,45169.4865675,45169,1505.6333333333334,4.284269167596449,2,0,5,1,2,1,b'SB_2_frameB_foil.png',1509.9338214175964,45298.014642527894,45298,1509.9333333333334
103,1509.9392257499999,45298.176772499995,45298,1509.9333333333334,1510.5413617499999,45316.24085249999,45316,1510.5333333333333,1512.0685575,45362.056725,45362,1512.0666666666666,2.1688467304888945,3,0,3,2,1,2,b'HB_1_frameA_foil.png',1514.237404230489,45427.12212691467,45427,1514.2333333333333
104,1514.25429575,45427.6288725,45427,1514.2333333333333,1514.7761067499998,45443.283202499995,45443,1514.7666666666667,1516.32349375,45489.7048125,45489,1516.3,2.2314966323851877,2,0,5,1,2,1,b'SB_5_frameB_foil.png',1518.554990382385,45556.64971147155,45556,1518.5333333333333
105,1518.579683,45557.39049,45557,1518.5666666666666,1519.1818325,45575.454975,45575,1519.1666666666667,1520.70890825,45621.2672475,45621,1520.7,1.827396490749834,2,0,5,1,2,1,b'SB_2_frameB_foil.png',1522.5363047407498,45676.089142222496,45676,1522.5333333333333
106,1522.548777,45676.46331,45676,1522.5333333333333,1523.07050775,45692.1152325,45692,1523.0666666666666,1524.5980375,45737.941125,45737,1524.5666666666666,3.022293359413652,2,1,3,2,2,2,b'SB_4_frameA.png',1527.6203308594136,45828.60992578241,45828,1527.6
107,1527.6392127499998,45829.176382499994,45829,1527.6333333333334,1528.18119875,45845.4359625,45845,1528.1666666666667,1529.7086285,45891.258855,45891,1529.7,1.0194553473129417,3,1,6,1,1,2,b'HB_1_frameB.png',1530.728083847313,45921.84251541939,45921,1530.7
108,1530.75277525,45922.5832575,45922,1530.7333333333333,1531.33474725,45940.0424175,45940,1531.3333333333333,1532.861881,45985.85643,45985,1532.8333333333333,1.6043399487916759,1,1,2,2,2,3,b'NB_2_frameA.png',1534.4662209487917,46033.986628463754,46033,1534.4333333333334
109,1534.474702,46034.24106,46034,1534.4666666666667,1535.0769564999998,46052.30869499999,46052,1535.0666666666666,1536.6241095,46098.723285,46098,1536.6,2.190847348805164,3,1,6,1,1,2,b'HB_6_frameA.png',1538.8149568488052,46164.44870546416,46164,1538.8
110,1538.834093,46165.022789999995,46165,1538.8333333333333,1539.4160944999999,46182.482834999995,46182,1539.4,1540.94351775,46228.3055325,46228,1540.9333333333334,1.7473031020481358,2,0,5,1,2,1,b'SB_2_frameA_foil.png',1542.690820852048,46280.724625561445,46280,1542.6666666666667
111,1542.69867375,46280.960212499995,46280,1542.6666666666667,1543.28081525,46298.4244575,46298,1543.2666666666667,1544.807853,46344.235590000004,46344,1544.8,1.5685129484281788,2,0,5,1,2,1,b'SB_1_frameA_foil.png',1546.3763659484282,46391.290978452846,46391,1546.3666666666666
112,1546.39979525,46391.9938575,46391,1546.3666666666666,1546.92171175,46407.6513525,46407,1546.9,1548.448843,46453.46529,46453,1548.4333333333334,2.772485395597414,1,0,7,1,2,3,b'NB_22_frameB_foil.png',1551.2213283955973,46536.63985186792,46536,1551.2
113,1551.22920675,46536.8762025,46536,1551.2,1551.79109525,46553.7328575,46553,1551.7666666666667,1553.31839425,46599.5518275,46599,1553.3,0.5001910228061206,2,1,3,2,2,2,b'SB_2_frameB.png',1553.818585272806,46614.557558184184,46614,1553.8
114,1553.83424575,46615.0273725,46615,1553.8333333333333,1554.356123,46630.68369,46630,1554.3333333333333,1555.8831902499999,46676.4957075,46676,1555.8666666666666,0.4603253582504294,3,0,6,1,2,2,b'HB_6_frameA_foil.png',1556.3435156082503,46690.30546824751,46690,1556.3333333333333
115,1556.35077875,46690.523362500004,46690,1556.3333333333333,1556.87274125,46706.1822375,46706,1556.8666666666666,1558.3997997499998,46751.99399249999,46751,1558.3666666666666,0.7737250910195144,1,0,7,1,2,3,b'NB_16_frameB_foil.png',1559.1735248410193,46775.20574523058,46775,1559.1666666666667
116,1559.183793,46775.51379,46775,1559.1666666666667,1559.70572475,46791.171742499995,46791,1559.7,1561.2330192499999,46836.99057749999,46836,1561.2,0.6963630373061278,2,0,6,1,2,2,b'SB_5_frameA_foil.png',1561.929382287306,46857.881468619176,46857,1561.9
117,1561.9481779999999,46858.44534,46858,1561.9333333333334,1562.4699209999999,46874.09763,46874,1562.4666666666667,1564.0175339999998,46920.52602,46920,1564.0,1.5481946680743022,2,0,4,2,1,1,b'SB_1_frameB_foil.png',1565.5657286680741,46966.97186004223,46966,1565.5333333333333
118,1565.58835525,46967.650657499995,46967,1565.5666666666666,1566.1101992499998,46983.30597749999,46983,1566.1,1567.65760725,47029.7282175,47029,1567.6333333333334,1.0752815690234456,3,1,3,2,2,2,b'HB_1_frameA.png',1568.7328888190234,47061.9866645707,47061,1568.7
119,1568.7398732499998,47062.196197499994,47062,1568.7333333333333,1569.28170875,47078.4512625,47078,1569.2666666666667,1570.8088555,47124.265665,47124,1570.8,1.0311612219497874,3,0,3,2,1,2,b'HB_2_frameB_foil.png',1571.8400167219497,47155.20050165849,47155,1571.8333333333333
120,1571.85587975,47155.6763925,47155,1571.8333333333333,1572.39783025,47171.9349075,47171,1572.3666666666666,1573.9450024999999,47218.350074999995,47218,1573.9333333333334,3.0020060024958184,3,1,3,2,2,2,b'HB_9_frameB.png',1576.9470085024957,47308.41025507487,47308,1576.9333333333334
121,1576.9691297499999,47309.0738925,47309,1576.9666666666667,1577.5713147499998,47327.139442499996,47327,1577.5666666666666,1579.09861875,47372.9585625,47372,1579.0666666666666,0.5988696831577727,3,0,7,1,2,3,b'HB_5_frameB_foil.png',1579.6974884331578,47390.924652994734,47390,1579.6666666666667
122,1579.721489,47391.64467,47391,1579.7,1580.2431462499999,47407.2943875,47407,1580.2333333333333,1581.7704015,47453.112045,47453,1581.7666666666667,2.355894233261097,2,1,3,2,2,2,b'SB_5_frameA.png',1584.126295733261,47523.78887199783,47523,1584.1
123,1584.13746,47524.1238,47524,1584.1333333333334,1584.7194505,47541.583515,47541,1584.7,1586.2468855,47587.406565,47587,1586.2333333333333,2.9996561516350084,1,0,7,1,2,3,b'NB_27_frameA_foil.png',1589.246541651635,47677.39624954905,47677,1589.2333333333333
124,1589.2586697499999,47677.76009249999,47677,1589.2333333333333,1589.840685,47695.22055,47695,1589.8333333333333,1591.3678975,47741.036925,47741,1591.3666666666666,2.7216252015937243,2,0,6,1,2,2,b'SB_1_frameA_foil.png',1594.0895227015938,47822.68568104781,47822,1594.0666666666666
125,1594.105637,47823.169109999995,47823,1594.1,1594.7075774999998,47841.22732499999,47841,1594.7,1596.23487675,47887.0463025,47887,1596.2333333333333,0.8341493356269893,2,0,4,2,1,1,b'SB_2_frameB_foil.png',1597.069026085627,47912.07078256881,47912,1597.0666666666666
126,1597.0785537499999,47912.35661249999,47912,1597.0666666666666,1597.6406745,47929.220235,47929,1597.6333333333334,1599.167706,47975.03118,47975,1599.1666666666667,1.044865911227589,2,1,3,2,2,2,b'SB_1_frameB.png',1600.2125719112275,48006.37715733683,48006,1600.2
127,1600.2355075,48007.065225,48007,1600.2333333333333,1600.79727575,48023.9182725,48023,1600.7666666666667,1602.344674,48070.34022,48070,1602.3333333333333,0.569348007951703,2,1,7,1,1,3,b'SB_9_frameA.png',1602.9140220079516,48087.42066023855,48087,1602.9
128,1602.936273,48088.08819,48088,1602.9333333333334,1603.43795375,48103.1386125,48103,1603.4333333333334,1604.9858419999998,48149.57526,48149,1604.9666666666667,1.2940697340263796,1,1,7,1,1,3,b'NB_1_frameB.png',1606.2799117340262,48188.39735202079,48188,1606.2666666666667
129,1606.295704,48188.871119999996,48188,1606.2666666666667,1606.8175152499998,48204.52545749999,48204,1606.8,1608.3450404999999,48250.351214999995,48250,1608.3333333333333,0.1482535303612167,2,0,5,1,2,1,b'SB_3_frameA_foil.png',1608.493294030361,48254.79882091083,48254,1608.4666666666667
130,1608.4989214999998,48254.967645,48254,1608.4666666666667,1609.06093775,48271.8281325,48271,1609.0333333333333,1610.608113,48318.24339,48318,1610.6,2.3621112231990082,1,0,6,1,2,2,b'NB_20_frameB_foil.png',1612.970224223199,48389.10672669597,48389,1612.9666666666667
131,1612.9765069999999,48389.29521,48389,1612.9666666666667,1613.538392,48406.15176,48406,1613.5333333333333,1615.0654725,48451.964175,48451,1615.0333333333333,0.4047196652209095,3,1,2,2,2,3,b'HB_9_frameA.png',1615.4701921652209,48464.10576495663,48464,1615.4666666666667
132,1615.4796675,48464.390025,48464,1615.4666666666667,1616.0616135,48481.848405,48481,1616.0333333333333,1617.6088157499998,48528.2644725,48528,1617.6,1.9288901404888747,2,0,2,2,1,3,b'SB_8_frameB_foil.png',1619.5377058904887,48586.13117671466,48586,1619.5333333333333
133,1619.54358475,48586.3075425,48586,1619.5333333333333,1620.145589,48604.36767,48604,1620.1333333333334,1621.6926597499998,48650.7797925,48650,1621.6666666666667,1.2461147644498851,2,0,2,2,1,3,b'SB_1_frameA_foil.png',1622.9387745144497,48688.163235433494,48688,1622.9333333333334
134,1622.9448667499998,48688.346002499995,48688,1622.9333333333334,1623.52679775,48705.8039325,48705,1623.5,1625.0541105,48751.623315,48751,1625.0333333333333,4.094155095533097,1,0,6,1,2,2,b'NB_29_frameA_foil.png',1629.148265595533,48874.44796786599,48874,1629.1333333333334
135,1629.16409375,48874.92281249999,48874,1629.1333333333334,1629.7661285,48892.983855,48892,1629.7333333333333,1631.2934105,48938.802315,48938,1631.2666666666667,1.8714626819732985,1,1,6,1,1,2,b'NB_15_frameB.png',1633.1648731819732,48994.9461954592,48994,1633.1333333333334
136,1633.17112275,48995.1336825,48995,1633.1666666666667,1633.73316925,49011.995077499996,49011,1633.7,1635.2603354999999,49057.810065,49057,1635.2333333333333,2.3486954598429293,1,0,2,2,1,3,b'NB_12_frameB_foil.png',1637.6090309598428,49128.27092879528,49128,1637.6
137,1637.61979125,49128.5937375,49128,1637.6,1638.1616215,49144.848645,49144,1638.1333333333334,1639.6890325,49190.670975,49190,1639.6666666666667,0.7882150544182878,1,1,3,2,2,2,b'NB_20_frameA.png',1640.4772475544182,49214.317426632544,49214,1640.4666666666667
138,1640.5014219999998,49215.04265999999,49215,1640.5,1641.003109,49230.09327,49230,1641.0,1642.53013425,49275.9040275,49275,1642.5,3.1348241405758017,2,1,3,2,2,2,b'SB_2_frameB.png',1645.6649583905757,49369.948751717275,49369,1645.6333333333334
139,1645.68902,49370.6706,49370,1645.6666666666667,1646.3110952499999,49389.3328575,49389,1646.3,1647.83831175,49435.1493525,49435,1647.8333333333333,1.9968463785644417,1,0,7,1,2,3,b'NB_26_frameB_foil.png',1649.8351581285644,49495.054743856934,49495,1649.8333333333333
140,1649.85804575,49495.7413725,49495,1649.8333333333333,1650.3798995,49511.396985,49511,1650.3666666666666,1651.90708,49557.2124,49557,1651.9,0.6644960574135439,1,1,2,2,2,3,b'NB_28_frameA.png',1652.5715760574135,49577.147281722406,49577,1652.5666666666666
141,1652.590377,49577.71131,49577,1652.5666666666666,1653.1923587499998,49595.7707625,49595,1653.1666666666667,1654.73979425,49642.1938275,49642,1654.7333333333333,1.6904473504087036,3,1,2,2,2,3,b'HB_6_frameA.png',1656.4302416004086,49692.907248012256,49692,1656.4
142,1656.447942,49693.43826,49693,1656.4333333333334,1657.02987725,49710.8963175,49710,1657.0,1658.5570269999998,49756.71081,49756,1658.5333333333333,0.43248186374921715,3,0,6,1,2,2,b'HB_3_frameB_foil.png',1658.989508863749,49769.68526591247,49769,1658.9666666666667
143,1658.9947459999999,49769.842379999995,49769,1658.9666666666667,1659.5567365,49786.702095,49786,1659.5333333333333,1661.0840377499999,49832.5211325,49832,1661.0666666666666,1.0927287633276137,2,1,6,1,1,2,b'SB_6_frameB.png',1662.1767665133275,49865.30299539983,49865,1662.1666666666667
144,1662.20104275,49866.0312825,49866,1662.2,1662.7230184999999,49881.690554999994,49881,1662.7,1664.250098,49927.50294,49927,1664.2333333333333,1.4699434242515963,1,1,7,1,1,3,b'NB_26_frameA.png',1665.7200414242516,49971.60124272755,49971,1665.7
145,1665.73450175,49972.035052499996,49972,1665.7333333333333,1666.29637675,49988.8913025,49988,1666.2666666666667,1667.8446267499999,50035.338802499995,50035,1667.8333333333333,0.5670226763486426,3,0,2,2,1,3,b'HB_9_frameA_foil.png',1668.4116494263485,50052.34948279046,50052,1668.4
146,1668.4283994999998,50052.851984999994,50052,1668.4,1668.9904729999998,50069.71419,50069,1668.9666666666667,1670.5376557499999,50116.1296725,50116,1670.5333333333333,1.862890461965435,3,0,7,1,2,3,b'HB_4_frameA_foil.png',1672.4005462119653,50172.01638635896,50172,1672.4
147,1672.4056855,50172.17056499999,50172,1672.4,1672.947655,50188.42965,50188,1672.9333333333334,1674.49469875,50234.8409625,50234,1674.4666666666667,2.6009715831505673,2,0,3,2,1,2,b'SB_7_frameA_foil.png',1677.0956703331506,50312.87010999452,50312,1677.0666666666666
148,1677.1102409999999,50313.30723,50313,1677.1,1677.6321105,50328.963315,50328,1677.6,1679.1591465,50374.774395,50374,1679.1333333333334,1.7043852501133188,3,1,2,2,2,3,b'HB_2_frameA.png',1680.8635317501132,50425.905952503395,50425,1680.8333333333333
149,1680.8684735,50426.054205,50426,1680.8666666666666,1681.390397,50441.71191,50441,1681.3666666666666,1682.9174105,50487.522315,50487,1682.9,2.6073803535437037,3,1,2,2,2,3,b'HB_2_frameA.png',1685.5247908535437,50565.74372560631,50565,1685.5
150,1685.549655,50566.48965,50566,1685.5333333333333,1686.1115379999999,50583.346139999994,50583,1686.1,1687.65948375,50629.784512499995,50629,1687.6333333333334,1.7877458685543388,3,0,3,2,1,2,b'HB_2_frameA_foil.png',1689.4472296185543,50683.416888556625,50683,1689.4333333333334
151,1689.46875475,50684.0626425,50684,1689.4666666666667,1690.0306659999999,50700.91998,50700,1690.0,1691.55800125,50746.7400375,50746,1691.5333333333333,2.687785319944396,3,1,3,2,2,2,b'HB_4_frameB.png',1694.2457865699444,50827.37359709833,50827,1694.2333333333333
152,1694.270096,50828.10288,50828,1694.2666666666667,1694.83197925,50844.959377499996,50844,1694.8,1696.3590097499998,50890.7702925,50890,1696.3333333333333,0.7702816973660447,1,0,6,1,2,2,b'NB_1_frameA_foil.png',1697.1292914473659,50913.87874342097,50913,1697.1
153,1697.1423312499999,50914.269937499994,50914,1697.1333333333334,1697.6841582499999,50930.5247475,50930,1697.6666666666667,1699.2317564999998,50976.95269499999,50976,1699.2,0.9997291825038701,2,1,2,2,2,3,b'SB_1_frameA.png',1700.2314856825037,51006.94457047511,51006,1700.2
154,1700.247521,51007.42563,51007,1700.2333333333333,1700.78934175,51023.680252499995,51023,1700.7666666666667,1702.31648,51069.494399999996,51069,1702.3,2.1452506651489784,3,0,5,1,2,1,b'HB_2_frameB_foil.png',1704.461730665149,51133.85191995447,51133,1704.4333333333334
155,1704.47108525,51134.1325575,51134,1704.4666666666667,1704.992826,51149.784779999994,51149,1704.9666666666667,1706.52038275,51195.6114825,51195,1706.5,1.8120092744152316,1,1,2,2,2,3,b'NB_8_frameA.png',1708.3323920244152,51249.97176073246,51249,1708.3
156,1708.34875375,51250.4626125,51250,1708.3333333333333,1708.93062825,51267.9188475,51267,1708.9,1710.4576519999998,51313.72955999999,51313,1710.4333333333334,2.11287168596391,2,1,4,2,2,1,b'SB_3_frameA.png',1712.5705236859637,51377.11571057891,51377,1712.5666666666666
157,1712.590178,51377.70534,51377,1712.5666666666666,1713.11219775,51393.3659325,51393,1713.1,1714.65940975,51439.7822925,51439,1714.6333333333334,0.5440656314508487,1,0,6,1,2,2,b'NB_13_frameA_foil.png',1715.2034753814507,51456.10426144352,51456,1715.2
158,1715.2186605,51456.559815,51456,1715.2,1715.78035575,51473.410672499995,51473,1715.7666666666667,1717.30758025,51519.2274075,51519,1717.3,2.812849747366272,1,0,2,2,1,3,b'NB_24_frameB_foil.png',1720.1204299973663,51603.61289992099,51603,1720.1
159,1720.1441057499999,51604.32317249999,51604,1720.1333333333334,1720.70620775,51621.1862325,51621,1720.7,1722.2332172499998,51666.996517499996,51666,1722.2,2.0383581109877014,1,1,2,2,2,3,b'NB_17_frameB.png',1724.2715753609875,51728.147260829624,51728,1724.2666666666667
160,1724.2961027499998,51728.8830825,51728,1724.2666666666667,1724.838159,51745.14477,51745,1724.8333333333333,1726.38531225,51791.5593675,51791,1726.3666666666666,0.0,1,0,1,0,1,0,b'NB_5_frameA_foil.png',1726.38531225,51791.5593675,51791,1726.3666666666666
161,1726.42131625,51792.6394875,51792,1726.4,1726.9633992499998,51808.9019775,51808,1726.9333333333334,1728.49049025,51854.7147075,51854,1728.4666666666667,3.0128747155426936,2,0,3,2,1,2,b'SB_5_frameB_foil.png',1731.5033649655427,51945.10094896628,51945,1731.5
162,1731.5086279999998,51945.258839999995,51945,1731.5,1732.0304945,51960.914835,51960,1732.0,1733.55763125,52006.7289375,52006,1733.5333333333333,1.3764800525677856,2,0,7,1,2,3,b'SB_8_frameA_foil.png',1734.9341113025678,52048.02333907703,52048,1734.9333333333334
163,1734.9504405,52048.513215,52048,1734.9333333333334,1735.53247425,52065.974227499995,52065,1735.5,1737.07981875,52112.3945625,52112,1737.0666666666666,2.8525739898800566,3,1,2,2,2,3,b'HB_1_frameB.png',1739.93239273988,52197.9717821964,52197,1739.9
164,1739.950766,52198.522979999994,52198,1739.9333333333334,1740.5126555,52215.379665,52215,1740.5,1742.0597954999998,52261.79386499999,52261,1742.0333333333333,1.5731607878969953,3,0,4,2,1,1,b'HB_6_frameB_foil.png',1743.6329562878968,52308.988688636906,52308,1743.6
165,1743.6405197499998,52309.2155925,52309,1743.6333333333334,1744.2224952499998,52326.674857499995,52326,1744.2,1745.77054475,52373.1163425,52373,1745.7666666666667,-0.8637962777756911,1,0,2,2,1,3,b'NB_19_frameA_foil.png',1744.9067484722243,52347.20245416673,52347,1744.9
166,1744.9186995,52347.560985000004,52347,1744.9,1745.44047275,52363.2141825,52363,1745.4333333333334,1746.987658,52409.629740000004,52409,1746.9666666666667,1.8425880627542028,2,0,2,2,1,3,b'SB_6_frameB_foil.png',1748.8302460627542,52464.90738188263,52464,1748.8
167,1748.85345975,52465.6037925,52465,1748.8333333333333,1749.43541225,52483.062367499995,52483,1749.4333333333334,1750.9627085,52528.881255,52528,1750.9333333333334,-0.3158308480465166,3,1,2,2,2,3,b'HB_5_frameB.png',1750.6468776519534,52519.4063295586,52519,1750.6333333333334
168,1750.6653952499998,52519.9618575,52519,1750.6333333333334,1751.22728375,52536.8185125,52536,1751.2,1752.7745175,52583.235525,52583,1752.7666666666667,-0.270366885146359,1,1,2,2,2,3,b'NB_13_frameB.png',1752.5041506148536,52575.124518445606,52575,1752.5
169,1752.5184722499998,52575.5541675,52575,1752.5,1753.080418,52592.41254,52592,1753.0666666666666,1754.6078109999999,52638.23432999999,52638,1754.6,0.47510860697229873,1,1,2,2,2,3,b'NB_24_frameA.png',1755.0829196069722,52652.487588209166,52652,1755.0666666666666
170,1755.1003744999998,52653.011235,52653,1755.1,1755.6823359999999,52670.47008,52670,1755.6666666666667,1757.209517,52716.28551,52716,1757.2,1.6794845790864201,1,1,2,2,2,3,b'NB_12_frameA.png',1758.8890015790864,52766.670047372594,52766,1758.8666666666666
171,1758.9106017499998,52767.31805249999,52767,1758.9,1759.45247675,52783.5743025,52783,1759.4333333333334,1760.97989975,52829.3969925,52829,1760.9666666666667,0.9108476964056536,3,1,3,2,2,2,b'HB_1_frameB.png',1761.8907474464056,52856.722423392166,52856,1761.8666666666666
172,1761.9114594999999,52857.343785,52857,1761.9,1762.453045,52873.59135,52873,1762.4333333333334,1764.000384,52920.01152,52920,1764.0,1.2482087650096219,3,0,6,1,2,2,b'HB_1_frameA_foil.png',1765.2485927650096,52957.45778295029,52957,1765.2333333333333
173,1765.26451125,52957.9353375,52957,1765.2333333333333,1765.846669,52975.40007,52975,1765.8333333333333,1767.37383675,53021.2151025,53021,1767.3666666666666,2.194385200793022,1,0,2,2,1,3,b'NB_21_frameA_foil.png',1769.568221950793,53087.04665852379,53087,1769.5666666666666
174,1769.5751397499998,53087.2541925,53087,1769.5666666666666,1770.0969235,53102.907705,53102,1770.0666666666666,1771.62421425,53148.7264275,53148,1771.6,0.11454295112935142,1,0,3,2,1,2,b'NB_11_frameA_foil.png',1771.7387572011294,53152.16271603388,53152,1771.7333333333333
175,1771.756152,53152.684559999994,53152,1771.7333333333333,1772.29805375,53168.9416125,53168,1772.2666666666667,1773.8254024999999,53214.762075,53214,1773.8,-1.4518369366251136,2,1,2,2,2,3,b'SB_1_frameA.png',1772.3735655633748,53171.20696690124,53171,1772.3666666666666
176,1772.3902555,53171.707665,53171,1772.3666666666666,1772.9521315,53188.563945,53188,1772.9333333333334,1774.4792805,53234.378415,53234,1774.4666666666667,-0.6462701105715496,1,1,2,2,2,3,b'NB_25_frameB.png',1773.8330103894284,53214.99031168285,53214,1773.8
177,1773.8623727499998,53215.87118249999,53215,1773.8333333333333,1774.3804437499998,53231.41331249999,53231,1774.3666666666666,1775.8721715,53276.165145,53276,1775.8666666666666,1.0462324073141644,2,1,6,1,1,2,b'SB_30_frameA.png',1776.918403907314,53307.55211721942,53307,1776.9
178,1776.9463345,53308.390035,53308,1776.9333333333334,1777.5211817499999,53325.6354525,53325,1777.5,1779.074382,53372.23146,53372,1779.0666666666666,1.822011177911918,2,0,3,2,1,2,b'SB_30_frameB_foil.png',1780.896393177912,53426.89179533736,53426,1780.8666666666666
179,1780.94442975,53428.332892499995,53428,1780.9333333333334,1781.45018775,53443.5056325,53443,1781.4333333333334,1782.965252,53488.957559999995,53488,1782.9333333333334,1.6253027161906175,3,1,3,2,2,2,b'HB_30_frameB.png',1784.5905547161906,53537.71664148572,53537,1784.5666666666666
180,1784.657491,53539.72473,53539,1784.6333333333334,1785.21722475,53556.5167425,53556,1785.2,1786.76696475,53603.0089425,53603,1786.7666666666667,1.0640681430390941,3,0,7,1,2,3,b'HB_30_frameA_foil.png',1787.831032893039,53634.93098679117,53634,1787.8
