trial_num,fixcross_time,fixation_HZ,fixation_bin,fixation_regarded,start_time,Fstart_HZ,Fstart_bin,Fstart_regarded,stop_time,Fstop_HZ,Fstop_bin,Fstop_regarded,RT,boundary_type,stimuli_type,resp_value,old_new,accuracy,confidence,frameName,response_time,response_HZ,response_bin,response_regarded
1,1204.20122275,36126.036682499995,36126,1204.2,1204.7511057499999,36142.53317249999,36142,1204.7333333333333,1206.305204,36189.15612,36189,1206.3,3.786946331623767,2,1,2,2,2,3,b'SB_1_frameA.png',1210.0921503316238,36302.76450994871,36302,1210.0666666666666
2,1210.102103,36303.063089999996,36303,1210.1,1210.63532975,36319.0598925,36319,1210.6333333333334,1212.1697805,36365.093414999996,36365,1212.1666666666667,3.2071070741221774,2,0,6,1,2,2,b'SB_5_frameB_foil.png',1215.376887574122,36461.30662722366,36461,1215.3666666666666
3,1215.3947145,36461.841435,36461,1215.3666666666666,1215.8612807499999,36475.8384225,36475,1215.8333333333333,1217.41328525,36522.3985575,36522,1217.4,1.7313486964339972,1,0,7,1,2,3,b'NB_23_frameA_foil.png',1219.144633946434,36574.33901839302,36574,1219.1333333333334
4,1219.1528305,36574.584915,36574,1219.1333333333334,1219.61940125,36588.582037500004,36588,1219.6,1221.1542622499999,36634.6278675,36634,1221.1333333333334,0.5373028158719535,2,1,2,2,2,3,b'SB_2_frameA.png',1221.6915650658718,36650.74695197616,36650,1221.6666666666667
5,1221.696409,36650.89227,36650,1221.6666666666667,1222.24628125,36667.3884375,36667,1222.2333333333333,1223.7993655,36713.980965,36713,1223.7666666666667,0.4591455057961866,1,0,7,1,2,3,b'NB_3_frameA_foil.png',1224.2585110057962,36727.75533017389,36727,1224.2333333333333
6,1224.2674944999999,36728.024835,36728,1224.2666666666667,1224.86736725,36746.021017499996,36746,1224.8666666666666,1226.40226975,36792.0680925,36792,1226.4,0.0,1,1,1,0,1,0,b'NB_10_frameA.png',1226.40226975,36792.0680925,36792,1226.4
7,1227.8254729999999,36834.764189999994,36834,1227.8,1228.3087154999998,36849.261464999996,36849,1228.3,1229.84306825,36895.2920475,36895,1229.8333333333333,1.5813025284514879,3,1,6,1,1,2,b'HB_8_frameB.png',1231.4243707784515,36942.731123353544,36942,1231.4
8,1231.43219825,36942.9659475,36942,1231.4,1231.9987425,36959.962275,36959,1231.9666666666667,1233.5324262499998,37005.972787499995,37005,1233.5,2.7391399191037635,1,1,2,2,2,3,b'NB_19_frameB.png',1236.2715661691036,37088.14698507311,37088,1236.2666666666667
9,1236.27900675,37088.3702025,37088,1236.2666666666667,1236.762242,37102.86726,37102,1236.7333333333333,1238.296226,37148.88678,37148,1238.2666666666667,2.2297691820931504,3,0,2,2,1,3,b'HB_4_frameB_foil.png',1240.525995182093,37215.779855462795,37215,1240.5
10,1240.5317155,37215.951465,37215,1240.5,1241.06490225,37231.9470675,37231,1241.0333333333333,1242.5986865,37277.960595,37277,1242.5666666666666,0.1502228733515949,3,1,2,2,2,3,b'HB_7_frameB.png',1242.7489093733516,37282.467281200545,37282,1242.7333333333333
11,1242.7637155,37282.911465,37282,1242.7333333333333,1243.28027475,37298.4082425,37298,1243.2666666666667,1244.815013,37344.45039,37344,1244.8,0.8802009810096934,3,1,2,2,2,3,b'HB_6_frameA.png',1245.6952139810096,37370.85641943029,37370,1245.6666666666667
12,1245.7135524999999,37371.40657499999,37371,1245.7,1246.2300989999999,37386.902969999996,37386,1246.2,1247.7639374999999,37432.918125,37432,1247.7333333333333,0.9550784531820682,2,0,6,1,2,2,b'SB_5_frameB_foil.png',1248.719015953182,37461.57047859546,37461,1248.7
13,1248.73226775,37461.96803249999,37461,1248.7,1249.1988314999999,37475.964945,37475,1249.1666666666667,1250.73318475,37521.9955425,37521,1250.7,3.1106232005986385,2,1,2,2,2,3,b'SB_2_frameB.png',1253.8438079505986,37615.31423851796,37615,1253.8333333333333
14,1253.8596949999999,37615.79085,37615,1253.8333333333333,1254.3762467499998,37631.2874025,37631,1254.3666666666666,1255.9100732499999,37677.302197499994,37677,1255.9,0.7237839796289336,2,0,2,2,1,3,b'SB_6_frameA_foil.png',1256.6338572296288,37699.01571688886,37699,1256.6333333333334
15,1256.65023625,37699.5070875,37699,1256.6333333333334,1257.1168075,37713.504225000004,37713,1257.1,1258.651251,37759.53753,37759,1258.6333333333334,0.8799191368379979,3,1,2,2,2,3,b'HB_4_frameB.png',1259.531170136838,37785.93510410514,37785,1259.5
16,1259.541011,37786.23033,37786,1259.5333333333333,1260.0909115,37802.727345,37802,1260.0666666666666,1261.62487625,37848.7462875,37848,1261.6,1.1058944677206455,3,0,7,1,2,3,b'HB_6_frameB_foil.png',1262.7307707177206,37881.92312153162,37881,1262.7
17,1262.7400295,37882.200885,37882,1262.7333333333333,1263.2899065,37898.697195,37898,1263.2666666666667,1264.824627,37944.738809999995,37944,1264.8,2.8766791140078567,1,1,3,2,2,2,b'NB_3_frameB.png',1267.7013061140078,38031.03918342023,38031,1267.7
18,1267.70757925,38031.2273775,38031,1267.7,1268.2741227499998,38048.22368249999,38048,1268.2666666666667,1269.808945,38094.26835,38094,1269.8,1.3150781432486838,3,0,6,1,2,2,b'HB_1_frameA_foil.png',1271.1240231432487,38133.72069429746,38133,1271.1
19,1271.13087125,38133.9261375,38133,1271.1,1271.6474375,38149.423125,38149,1271.6333333333334,1273.182261,38195.467829999994,38195,1273.1666666666667,1.2141900987626286,2,0,7,1,2,3,b'SB_1_frameB_foil.png',1274.3964510987626,38231.89353296287,38231,1274.3666666666666
20,1274.4036664999999,38232.109995,38232,1274.4,1274.85356925,38245.6070775,38245,1274.8333333333333,1276.387585,38291.62755,38291,1276.3666666666666,0.7388104771525832,3,1,2,2,2,3,b'HB_1_frameB.png',1277.1263954771525,38313.791864314575,38313,1277.1
21,1277.1439707499999,38314.3191225,38314,1277.1333333333334,1277.69385975,38330.8157925,38330,1277.6666666666667,1279.2274745,38376.824235,38376,1279.2,1.5722097708494402,1,0,7,1,2,3,b'NB_28_frameB_foil.png',1280.7996842708494,38423.99052812548,38423,1280.7666666666667
22,1280.8044925,38424.134775,38424,1280.8,1281.27107,38438.1321,38438,1281.2666666666667,1282.8053204999999,38484.159615,38484,1282.8,3.0065627721487544,1,1,2,2,2,3,b'NB_26_frameA.png',1285.8118832721486,38574.35649816446,38574,1285.8
23,1285.816345,38574.49035,38574,1285.8,1286.3495309999998,38590.485929999995,38590,1286.3333333333333,1287.88358025,38636.5074075,38636,1287.8666666666666,0.6781278954222216,2,1,3,2,2,2,b'SB_4_frameB.png',1288.5617081454222,38656.85124436267,38656,1288.5333333333333
24,1288.5659205,38656.977614999996,38656,1288.5333333333333,1289.0824805,38672.474415,38672,1289.0666666666666,1290.617579,38718.527369999996,38718,1290.6,1.2661241750538466,3,0,2,2,1,3,b'HB_7_frameA_foil.png',1291.8837031750538,38756.51109525161,38756,1291.8666666666666
25,1291.901523,38757.04569,38757,1291.9,1292.41808125,38772.5424375,38772,1292.4,1293.9531895,38818.595685,38818,1293.9333333333334,2.2455342863686383,3,1,2,2,2,3,b'HB_5_frameA.png',1296.1987237863686,38885.96171359106,38885,1296.1666666666667
26,1296.201817,38886.054509999994,38886,1296.2,1296.6850567499998,38900.55170249999,38900,1296.6666666666667,1298.22011875,38946.6035625,38946,1298.2,1.9267593154581846,1,0,6,1,2,2,b'NB_21_frameA_foil.png',1300.1468780654582,39004.406341963746,39004,1300.1333333333334
27,1300.15158,39004.547399999996,39004,1300.1333333333334,1300.66816825,39020.0450475,39020,1300.6666666666667,1302.20278625,39066.0835875,39066,1302.2,1.920505736823543,2,0,6,1,2,2,b'SB_1_frameB_foil.png',1304.1232919868235,39123.698759604704,39123,1304.1
28,1304.1262245,39123.786735,39123,1304.1,1304.60947175,39138.2841525,39138,1304.6,1306.1432352499999,39184.29705749999,39184,1306.1333333333334,1.5799002877174644,3,0,7,1,2,3,b'HB_2_frameB_foil.png',1307.7231355377173,39231.69406613152,39231,1307.7
29,1307.7403405,39232.210215,39232,1307.7333333333333,1308.22357225,39246.7071675,39246,1308.2,1309.75727225,39292.718167499996,39292,1309.7333333333333,2.864051526579715,2,1,3,2,2,2,b'SB_6_frameA.png',1312.6213237765796,39378.63971329739,39378,1312.6
30,1312.6290685,39378.872055,39378,1312.6,1313.12897475,39393.8692425,39393,1313.1,1314.66266825,39439.8800475,39439,1314.6333333333334,0.4487308219759143,2,0,6,1,2,2,b'SB_6_frameA_foil.png',1315.111399071976,39453.34197215928,39453,1315.1
31,1315.1295995,39453.887985,39453,1315.1,1315.57945225,39467.3835675,39467,1315.5666666666666,1317.1135285,39513.405855000005,39513,1317.1,2.0519384679064387,1,1,3,2,2,2,b'NB_7_frameB.png',1319.1654669679065,39574.9640090372,39574,1319.1333333333334
32,1319.17078225,39575.1234675,39575,1319.1666666666667,1319.6540255,39589.620765,39589,1319.6333333333334,1321.187915,39635.63745,39635,1321.1666666666667,1.9148215637542307,1,0,6,1,2,2,b'NB_1_frameA_foil.png',1323.1027365637542,39693.08209691263,39693,1323.1
33,1323.12114625,39693.6343875,39693,1323.1,1323.6543649999999,39709.63095,39709,1323.6333333333334,1325.1893765,39755.681295,39755,1325.1666666666667,0.6022740393236745,2,0,6,1,2,2,b'SB_6_frameB_foil.png',1325.7916505393237,39773.74951617971,39773,1325.7666666666667
34,1325.8042355,39774.127065,39774,1325.8,1326.3041355,39789.124065,39789,1326.3,1327.83837825,39835.1513475,39835,1327.8333333333333,0.9703346955138841,1,1,2,2,2,3,b'NB_6_frameA.png',1328.808712945514,39864.26138836542,39864,1328.8
35,1328.816664,39864.49992,39864,1328.8,1329.3165225,39879.495675,39879,1329.3,1330.850823,39925.52469,39925,1330.8333333333333,2.6897615638226853,2,1,2,2,2,3,b'SB_1_frameB.png',1333.5405845638227,40006.21753691468,40006,1333.5333333333333
36,1333.54703875,40006.4111625,40006,1333.5333333333333,1334.09691875,40022.9075625,40022,1334.0666666666666,1335.6308255,40068.924764999996,40068,1335.6,1.5903870013717096,1,1,2,2,2,3,b'NB_12_frameA.png',1337.2212125013716,40116.63637504115,40116,1337.2
37,1337.22376225,40116.7128675,40116,1337.2,1337.75703725,40132.711117499995,40132,1337.7333333333333,1339.32448175,40179.73445249999,40179,1339.3,3.7746277624100912,2,0,7,1,2,3,b'SB_5_frameA_foil.png',1343.09910951241,40292.973285372296,40292,1343.0666666666666
38,1343.1015264999999,40293.045795,40293,1343.1,1343.6014295,40308.042885,40308,1343.6,1345.1353215,40354.059645,40354,1345.1333333333334,1.879890726566373,1,0,2,2,1,3,b'NB_6_frameB_foil.png',1347.0152122265663,40410.45636679699,40410,1347.0
39,1347.03279175,40410.9837525,40410,1347.0,1347.5826929999998,40427.480789999994,40427,1347.5666666666666,1349.1174935,40473.524804999994,40473,1349.1,2.480799630691763,1,0,2,2,1,3,b'NB_9_frameA_foil.png',1351.5982931306917,40547.94879392075,40547,1351.5666666666666
40,1351.61252225,40548.3756675,40548,1351.6,1352.09576625,40562.8729875,40562,1352.0666666666666,1353.6302322499998,40608.90696749999,40608,1353.6,-0.8998352321796119,1,1,7,1,1,3,b'NB_30_frameA.png',1352.7303970178202,40581.9119105346,40581,1352.7
41,1352.74891575,40582.4674725,40582,1352.7333333333333,1353.26548375,40597.964512499995,40597,1353.2333333333333,1354.79936475,40643.9809425,40643,1354.7666666666667,1.0758287857897813,3,0,6,1,2,2,b'HB_2_frameB_foil.png',1355.8751935357898,40676.25580607369,40676,1355.8666666666666
42,1355.88240425,40676.472127500005,40676,1355.8666666666666,1356.4156375,40692.469125,40692,1356.4,1357.9495325,40738.485975,40738,1357.9333333333334,2.687864265702956,2,1,3,2,2,2,b'SB_1_frameA.png',1360.637396765703,40819.12190297109,40819,1360.6333333333334
43,1360.65331475,40819.599442499995,40819,1360.6333333333334,1361.119878,40833.59634,40833,1361.1,1362.6535705,40879.607115,40879,1362.6333333333334,0.6455347983282991,1,0,2,2,1,3,b'NB_2_frameB_foil.png',1363.2991052983282,40898.97315894985,40898,1363.2666666666667
44,1363.302555,40899.07665,40899,1363.3,1363.8191112499999,40914.5733375,40914,1363.8,1365.35327825,40960.598347499996,40960,1365.3333333333333,1.7064002962506493,3,0,6,1,2,2,b'HB_6_frameB_foil.png',1367.0596785462506,41011.790356387515,41011,1367.0333333333333
45,1367.0745665,41012.236995,41012,1367.0666666666666,1367.557775,41026.73325,41026,1367.5333333333333,1369.0918964999998,41072.756895,41072,1369.0666666666666,-0.6468429725355236,2,1,2,2,2,3,b'SB_4_frameA.png',1368.4450535274643,41053.35160582393,41053,1368.4333333333334
46,1368.463061,41053.89183,41053,1368.4333333333334,1368.996158,41069.884739999994,41069,1368.9666666666667,1370.530963,41115.928889999996,41115,1370.5,1.2238940952156554,2,1,2,2,2,3,b'SB_4_frameB.png',1371.7548570952156,41152.645712856465,41152,1371.7333333333333
47,1371.773291,41153.19873,41153,1371.7666666666667,1372.273176,41168.19528,41168,1372.2666666666667,1373.80681,41214.2043,41214,1373.8,1.8933181930624414,3,0,7,1,2,3,b'HB_6_frameA_foil.png',1375.7001281930625,41271.00384579187,41271,1375.7
48,1375.703836,41271.115079999996,41271,1375.7,1376.170398,41285.11194,41285,1376.1666666666667,1377.705098,41331.15294,41331,1377.7,1.773049934192386,2,1,7,1,1,3,b'SB_7_frameA.png',1379.4781479341923,41384.34443802577,41384,1379.4666666666667
49,1379.491718,41384.75154,41384,1379.4666666666667,1379.991569,41399.74707,41399,1379.9666666666667,1381.52531575,41445.759472499994,41445,1381.5,0.07444879188551567,3,0,6,1,2,2,b'HB_1_frameA_foil.png',1381.5997645418854,41447.99293625656,41447,1381.5666666666666
50,1381.61597825,41448.4793475,41448,1381.6,1382.11586775,41463.4760325,41463,1382.1,1383.6507569999999,41509.52271,41509,1383.6333333333334,1.3299511405275553,3,0,6,1,2,2,b'HB_5_frameA_foil.png',1384.9807081405274,41549.421244215824,41549,1384.9666666666667
51,1384.9868207499999,41549.604622499995,41549,1384.9666666666667,1385.43673075,41563.1019225,41563,1385.4333333333334,1386.97053175,41609.1159525,41609,1386.9666666666667,3.0242165071031195,3,0,6,1,2,2,b'HB_1_frameB_foil.png',1389.994748257103,41699.84244771309,41699,1389.9666666666667
52,1390.01293025,41700.3879075,41700,1390.0,1390.5128284999998,41715.384855,41715,1390.5,1392.04664525,41761.3993575,41761,1392.0333333333333,2.6617887936954503,1,0,6,1,2,2,b'NB_24_frameB_foil.png',1394.7084340436954,41841.25302131086,41841,1394.7
53,1394.72216975,41841.6650925,41841,1394.7,1395.23873325,41857.1619975,41857,1395.2333333333333,1396.77314725,41903.194417499995,41903,1396.7666666666667,2.0006371480121743,1,0,7,1,2,3,b'NB_22_frameB_foil.png',1398.7737843980121,41963.21353194036,41963,1398.7666666666667
54,1398.780943,41963.428289999996,41963,1398.7666666666667,1399.29748825,41978.9246475,41978,1399.2666666666667,1400.83111525,42024.9334575,42024,1400.8,1.511957588023506,3,0,6,1,2,2,b'HB_1_frameA_foil.png',1402.3430728380235,42070.29218514071,42070,1402.3333333333333
55,1402.358059,42070.74177,42070,1402.3333333333333,1402.94125525,42088.2376575,42088,1402.9333333333334,1404.47513725,42134.2541175,42134,1404.4666666666667,1.6099931532953633,1,1,2,2,2,3,b'NB_17_frameB.png',1406.0851304032954,42182.55391209886,42182,1406.0666666666666
56,1406.0940162499999,42182.820487499994,42182,1406.0666666666666,1406.660567,42199.81701,42199,1406.6333333333334,1408.194448,42245.83344,42245,1408.1666666666667,1.4264558300055796,2,0,3,2,1,2,b'SB_7_frameB_foil.png',1409.6209038300055,42288.62711490017,42288,1409.6
57,1409.6286109999999,42288.858329999995,42288,1409.6,1410.111834,42303.35502,42303,1410.1,1411.645755,42349.37265,42349,1411.6333333333334,1.884249960690795,1,0,3,2,1,2,b'NB_8_frameB_foil.png',1413.5300049606908,42405.90014882072,42405,1413.5
58,1413.53411775,42406.023532499996,42406,1413.5333333333333,1414.0006939999998,42420.02082,42420,1414.0,1415.5356405,42466.069215,42466,1415.5333333333333,1.6039990758363274,3,1,7,1,1,3,b'HB_6_frameB.png',1417.1396395758363,42514.18918727509,42514,1417.1333333333334
59,1417.14794775,42514.4384325,42514,1417.1333333333334,1417.6311845,42528.935535,42528,1417.6,1419.16550425,42574.9651275,42574,1419.1333333333334,0.5634338163436041,2,0,6,1,2,2,b'SB_2_frameB_foil.png',1419.7289380663435,42591.86814199031,42591,1419.7
60,1419.739889,42592.19667,42592,1419.7333333333333,1420.2397832499998,42607.1934975,42607,1420.2333333333333,1421.7735397499998,42653.206192499994,42653,1421.7666666666667,2.7025219708521035,3,0,2,2,1,3,b'HB_3_frameA_foil.png',1424.476061720852,42734.28185162556,42734,1424.4666666666667
61,1424.485589,42734.56767,42734,1424.4666666666667,1424.985491,42749.56473,42749,1424.9666666666667,1426.519353,42795.58059,42795,1426.5,2.4787766883091535,1,0,2,2,1,3,b'NB_16_frameB_foil.png',1428.998129688309,42869.94389064927,42869,1428.9666666666667
62,1429.0083534999999,42870.250604999994,42870,1429.0,1429.4749184999998,42884.247554999994,42884,1429.4666666666667,1431.00922475,42930.2767425,42930,1431.0,0.522559432865819,3,0,6,1,2,2,b'HB_2_frameB_foil.png',1431.5317841828657,42945.95352548597,42945,1431.5
63,1431.5477365,42946.432095,42946,1431.5333333333333,1432.03099725,42960.9299175,42960,1432.0,1433.5649557499999,43006.948672499995,43006,1433.5333333333333,-1.196034038955986,2,1,3,2,2,2,b'SB_3_frameA.png',1432.3689217110439,42971.067651331316,42971,1432.3666666666666
64,1432.3790635,42971.371905,42971,1432.3666666666666,1432.87896725,42986.3690175,42986,1432.8666666666666,1434.414051,43032.42153,43032,1434.4,3.0528934463945916,2,0,2,2,1,3,b'SB_9_frameA_foil.png',1437.4669444463946,43124.00833339184,43124,1437.4666666666667
65,1437.47959425,43124.3878275,43124,1437.4666666666667,1438.062803,43141.88409,43141,1438.0333333333333,1439.5971439999998,43187.914319999996,43187,1439.5666666666666,2.844419590663165,2,0,6,1,2,2,b'SB_7_frameA_foil.png',1442.441563590663,43273.24690771989,43273,1442.4333333333334
66,1442.4529727499998,43273.58918249999,43273,1442.4333333333334,1442.969531,43289.08593,43289,1442.9666666666667,1444.5047045,43335.141135,43335,1444.5,2.359273008914897,2,1,6,1,1,2,b'SB_1_frameA.png',1446.8639775089148,43405.919325267445,43405,1446.8333333333333
67,1446.8755824999998,43406.26747499999,43406,1446.8666666666666,1447.3587745,43420.763235,43420,1447.3333333333333,1448.8929785,43466.789355,43466,1448.8666666666666,0.5633821751835058,1,1,2,2,2,3,b'NB_11_frameB.png',1449.4563606751835,43483.690820255506,43483,1449.4333333333334
68,1449.4712627499998,43484.13788249999,43484,1449.4666666666667,1449.97114825,43499.1344475,43499,1449.9666666666667,1451.50561875,43545.168562499995,43545,1451.5,1.7838691655124421,1,1,2,2,2,3,b'NB_21_frameB.png',1453.2894879155124,43598.68463746537,43598,1453.2666666666667
69,1453.3021717499998,43599.06515249999,43599,1453.3,1453.83539525,43615.0618575,43615,1453.8333333333333,1455.3702845,43661.108535,43661,1455.3666666666666,-0.27857273178960895,1,0,2,2,1,3,b'NB_5_frameA_foil.png',1455.0917117682104,43652.75135304631,43652,1455.0666666666666
70,1455.10225975,43653.0677925,43653,1455.1,1455.7021344999998,43671.064034999996,43671,1455.7,1457.23704725,43717.1114175,43717,1457.2333333333333,2.135641293913068,3,0,6,1,2,2,b'HB_5_frameB_foil.png',1459.372688543913,43781.18065631739,43781,1459.3666666666666
71,1459.38661175,43781.5983525,43781,1459.3666666666666,1459.85317375,43795.5952125,43795,1459.8333333333333,1461.38804975,43841.6414925,43841,1461.3666666666666,1.5328570948986453,1,0,6,1,2,2,b'NB_29_frameA_foil.png',1462.9209068448986,43887.62720534696,43887,1462.9
72,1462.9380864999998,43888.142595,43888,1462.9333333333334,1463.4879792499999,43904.639377499996,43904,1463.4666666666667,1465.0227762499999,43950.6832875,43950,1465.0,0.7802037173096323,2,1,2,2,2,3,b'SB_5_frameA.png',1465.8029799673095,43974.089399019285,43974,1465.8
73,1465.8112247499998,43974.336742499996,43974,1465.8,1466.31111425,43989.3334275,43989,1466.3,1467.84487025,44035.3461075,44035,1467.8333333333333,-0.5631533363412018,2,1,3,2,2,2,b'SB_9_frameB.png',1467.2817169136588,44018.451507409765,44018,1467.2666666666667
74,1467.2999507499999,44018.9985225,44018,1467.2666666666667,1467.74983,44032.4949,44032,1467.7333333333333,1469.2847465,44078.542395,44078,1469.2666666666667,2.1588626030206797,2,1,6,1,1,2,b'SB_1_frameB.png',1471.4436091030207,44143.30827309062,44143,1471.4333333333334
75,1471.45332175,44143.5996525,44143,1471.4333333333334,1471.95321375,44158.5964125,44158,1471.9333333333334,1473.48746775,44204.624032499996,44204,1473.4666666666667,1.5005353488595574,1,1,2,2,2,3,b'NB_24_frameA.png',1474.9880030988595,44249.64009296578,44249,1474.9666666666667
76,1474.9930097499998,44249.790292499994,44249,1474.9666666666667,1475.54288475,44266.2865425,44266,1475.5333333333333,1477.077253,44312.31759,44312,1477.0666666666666,1.2261187816257006,3,1,3,2,2,2,b'HB_8_frameB.png',1478.3033717816256,44349.10115344877,44349,1478.3
77,1478.3134364999999,44349.403094999994,44349,1478.3,1478.89665175,44366.8995525,44366,1478.8666666666666,1480.43042425,44412.9127275,44412,1480.4,0.08683848907094216,2,1,2,2,2,3,b'SB_2_frameB.png',1480.517262739071,44415.51788217213,44415,1480.5
78,1480.52059625,44415.6178875,44415,1480.5,1481.053811,44431.61433,44431,1481.0333333333333,1482.58832525,44477.6497575,44477,1482.5666666666666,2.5477993003005395,1,0,6,1,2,2,b'NB_12_frameB_foil.png',1485.1361245503006,44554.08373650902,44554,1485.1333333333334
79,1485.1421707499999,44554.26512249999,44554,1485.1333333333334,1485.6753795,44570.261385,44570,1485.6666666666667,1487.209203,44616.27609,44616,1487.2,0.7528449263118091,1,0,3,2,1,2,b'NB_25_frameA_foil.png',1487.9620479263117,44638.861437789354,44638,1487.9333333333334
80,1487.9780919999998,44639.34275999999,44639,1487.9666666666667,1488.47798025,44654.339407499996,44654,1488.4666666666667,1490.011638,44700.34914,44700,1490.0,0.9781810032727662,2,0,2,2,1,3,b'SB_2_frameA_foil.png',1490.9898190032727,44729.69457009818,44729,1490.9666666666667
81,1490.99415175,44729.824552499995,44729,1490.9666666666667,1491.52736375,44745.8209125,44745,1491.5,1493.0622065,44791.866195,44791,1493.0333333333333,1.6613972910490702,3,1,7,1,1,3,b'HB_2_frameB.png',1494.723603791049,44841.708113731474,44841,1494.7
82,1494.7272745,44841.818235,44841,1494.7,1495.2272727499999,44856.8181825,44856,1495.2,1496.7611855,44902.835565,44902,1496.7333333333333,1.904804960700858,1,1,7,1,1,3,b'NB_20_frameA.png',1498.6659904607009,44959.97971382103,44959,1498.6333333333334
83,1498.67221275,44960.1663825,44960,1498.6666666666667,1499.15545725,44974.6637175,44974,1499.1333333333334,1500.69029325,45020.708797499996,45020,1500.6666666666667,2.2740850782211055,1,0,7,1,2,3,b'NB_17_frameA_foil.png',1502.964378328221,45088.93134984663,45088,1502.9333333333334
84,1502.978801,45089.36403,45089,1502.9666666666667,1503.511973,45105.359189999996,45105,1503.5,1505.0463109999998,45151.38933,45151,1505.0333333333333,1.9393738055077847,3,1,2,2,2,3,b'HB_2_frameA.png',1506.9856848055076,45209.57054416523,45209,1506.9666666666667
85,1506.996574,45209.89722,45209,1506.9666666666667,1507.4464719999999,45223.394159999996,45223,1507.4333333333334,1508.9803955,45269.411865,45269,1508.9666666666667,1.304190242983168,3,1,6,1,1,2,b'HB_2_frameA.png',1510.2845857429832,45308.5375722895,45308,1510.2666666666667
86,1510.294974,45308.84922,45308,1510.2666666666667,1510.8281875,45324.845625,45324,1510.8,1512.36179075,45370.8537225,45370,1512.3333333333333,0.9684880145214265,3,1,2,2,2,3,b'HB_9_frameA.png',1513.3302787645214,45399.90836293564,45399,1513.3
87,1513.3353175,45400.059525,45400,1513.3333333333333,1513.868545,45416.05635,45416,1513.8666666666666,1515.40236375,45462.0709125,45462,1515.4,0.7780687626582221,1,0,6,1,2,2,b'NB_30_frameB_foil.png',1516.1804325126582,45485.412975379746,45485,1516.1666666666667
88,1516.1955965,45485.867894999996,45485,1516.1666666666667,1516.74547025,45502.3641075,45502,1516.7333333333333,1518.27912825,45548.3738475,45548,1518.2666666666667,3.11420071041357,2,0,3,2,1,2,b'SB_4_frameA_foil.png',1521.3933289604136,45641.799868812406,45641,1521.3666666666666
89,1521.3953645,45641.860935,45641,1521.3666666666666,1521.86196075,45655.8588225,45655,1521.8333333333333,1523.396251,45701.88753,45701,1523.3666666666666,1.6944188623747323,1,0,6,1,2,2,b'NB_11_frameA_foil.png',1525.0906698623746,45752.72009587124,45752,1525.0666666666666
90,1525.09864075,45752.9592225,45752,1525.0666666666666,1525.59852725,45767.9558175,45767,1525.5666666666666,1527.1326052499999,45813.978157499994,45813,1527.1,1.4578786593410769,1,1,2,2,2,3,b'NB_8_frameA.png',1528.590483909341,45857.71451728023,45857,1528.5666666666666
91,1528.5956735,45857.870205,45857,1528.5666666666666,1529.12889675,45873.8669025,45873,1529.1,1530.66259425,45919.8778275,45919,1530.6333333333334,1.9702232086710865,3,0,2,2,1,3,b'HB_2_frameB_foil.png',1532.632817458671,45978.98452376013,45978,1532.6
92,1532.65062175,45979.5186525,45979,1532.6333333333334,1533.1672115,45995.016345,45995,1533.1666666666667,1534.70097575,46041.0292725,46041,1534.7,1.2575844728999073,1,1,6,1,1,2,b'NB_28_frameA.png',1535.9585602229,46078.756806687,46078,1535.9333333333334
93,1535.9650844999999,46078.952535,46078,1535.9333333333334,1536.5482997499998,46096.448992499994,46096,1536.5333333333333,1538.0820055,46142.460165,46142,1538.0666666666666,2.700959614739986,2,0,6,1,2,2,b'SB_8_frameB_foil.png',1540.78296511474,46223.488953442196,46223,1540.7666666666667
94,1540.79980675,46223.9942025,46223,1540.7666666666667,1541.3496922499999,46240.4907675,46240,1541.3333333333333,1542.8847987499998,46286.54396249999,46286,1542.8666666666666,0.8500074586918345,2,1,2,2,2,3,b'SB_2_frameA.png',1543.7348062086917,46312.04418626075,46312,1543.7333333333333
95,1543.74816075,46312.444822499994,46312,1543.7333333333333,1544.29805475,46328.941642499994,46328,1544.2666666666667,1545.8318997499998,46374.956992499996,46374,1545.8,1.3705426150118,3,0,3,2,1,2,b'HB_3_frameB_foil.png',1547.2024423650116,46416.07327095035,46416,1547.2
96,1547.21171725,46416.3515175,46416,1547.2,1547.67827675,46430.348302499995,46430,1547.6666666666667,1549.2121662499999,46476.3649875,46476,1549.2,1.8472178805604926,2,0,6,1,2,2,b'SB_4_frameA_foil.png',1551.0593841305604,46531.78152391681,46531,1551.0333333333333
97,1551.06789,46532.036700000004,46532,1551.0666666666666,1551.5844525,46547.533575,46547,1551.5666666666666,1553.1184819999999,46593.55446,46593,1553.1,0.965643929586804,1,1,6,1,1,2,b'NB_22_frameA.png',1554.0841259295867,46622.5237778876,46622,1554.0666666666666
98,1554.09165575,46622.7496725,46622,1554.0666666666666,1554.6081964999998,46638.24589499999,46638,1554.6,1556.1418629999998,46684.25588999999,46684,1556.1333333333334,0.3714494331579772,2,1,2,2,2,3,b'SB_5_frameA.png',1556.5133124331578,46695.39937299473,46695,1556.5
99,1556.5240717499998,46695.7221525,46695,1556.5,1557.00730125,46710.2190375,46710,1557.0,1558.5420485,46756.261455,46756,1558.5333333333333,0.19736242472572485,2,1,3,2,2,2,b'SB_6_frameB.png',1558.7394109247257,46762.18232774177,46762,1558.7333333333333
100,1558.7571365,46762.714094999996,46762,1558.7333333333333,1559.27369275,46778.2107825,46778,1559.2666666666667,1560.80797225,46824.239167499996,46824,1560.8,1.5521963467181195,3,0,3,2,1,2,b'HB_4_frameA_foil.png',1562.360168596718,46870.80505790154,46870,1562.3333333333333
101,1562.37220775,46871.1662325,46871,1562.3666666666666,1562.8387739999998,46885.163219999995,46885,1562.8333333333333,1564.3726112499999,46931.178337499994,46931,1564.3666666666666,1.0379004165806691,2,0,3,2,1,2,b'SB_9_frameB_foil.png',1565.4105116665805,46962.315349997414,46962,1565.4
102,1565.4243884999998,46962.731654999996,46962,1565.4,1565.9409604999998,46978.228814999995,46978,1565.9333333333334,1567.4761207499998,47024.28362249999,47024,1567.4666666666667,-0.5236495906574419,2,1,2,2,2,3,b'SB_8_frameA.png',1566.9524711593424,47008.57413478027,47008,1566.9333333333334
103,1566.96962025,47009.0886075,47009,1566.9666666666667,1567.48617825,47024.5853475,47024,1567.4666666666667,1569.02023375,47070.6070125,47070,1569.0,0.8180254761900869,1,1,2,2,2,3,b'NB_2_frameA.png',1569.83825922619,47095.1477767857,47095,1569.8333333333333
104,1569.8486125,47095.458375,47095,1569.8333333333333,1570.3484795,47110.454385,47110,1570.3333333333333,1571.8824545,47156.473635,47156,1571.8666666666666,0.3630034733287175,1,1,7,1,1,3,b'NB_5_frameB.png',1572.2454579733287,47167.36373919986,47167,1572.2333333333333
105,1572.2522637499999,47167.567912499995,47167,1572.2333333333333,1572.7021395,47181.064184999996,47181,1572.7,1574.23710975,47227.1132925,47227,1574.2333333333333,0.9970874542123056,1,0,7,1,2,3,b'NB_14_frameB_foil.png',1575.2341972042123,47257.02591612637,47257,1575.2333333333333
106,1575.250847,47257.52541,47257,1575.2333333333333,1575.8174139999999,47274.522419999994,47274,1575.8,1577.3525084999999,47320.575254999996,47320,1577.3333333333333,4.030100907082669,2,0,7,1,2,3,b'SB_1_frameA_foil.png',1581.3826094070826,47441.478282212476,47441,1581.3666666666666
107,1581.38853225,47441.6559675,47441,1581.3666666666666,1581.8551075,47455.653225,47455,1581.8333333333333,1583.3897582499999,47501.6927475,47501,1583.3666666666666,1.9345149231521646,3,0,3,2,1,2,b'HB_7_frameB_foil.png',1585.324273173152,47559.72819519456,47559,1585.3
108,1585.3287902499999,47559.86370749999,47559,1585.3,1585.81199625,47574.3598875,47574,1585.8,1587.3473474999998,47620.420425,47620,1587.3333333333333,0.5771030689284089,1,0,7,1,2,3,b'NB_7_frameA_foil.png',1587.9244505689283,47637.73351706785,47637,1587.9
109,1587.9304929999998,47637.914789999995,47637,1587.9,1588.397027,47651.91081,47651,1588.3666666666666,1589.93172175,47697.9516525,47697,1589.9,1.3724666256457567,1,1,2,2,2,3,b'NB_25_frameB.png',1591.3041883756457,47739.12565126937,47739,1591.3
110,1591.3096087499998,47739.28826249999,47739,1591.3,1591.8595,47755.785,47755,1591.8333333333333,1593.393801,47801.81403,47801,1593.3666666666666,2.0445948575943476,2,0,7,1,2,3,b'SB_8_frameA_foil.png',1595.4383958575943,47863.15187572783,47863,1595.4333333333334
111,1595.454137,47863.62411,47863,1595.4333333333334,1595.9373655,47878.120964999995,47878,1595.9333333333334,1597.4716075,47924.148225,47924,1597.4666666666667,2.8223002092854585,1,1,2,2,2,3,b'NB_1_frameB.png',1600.2939077092853,48008.81723127856,48008,1600.2666666666667
112,1600.31076975,48009.323092499995,48009,1600.3,1600.77735775,48023.3207325,48023,1600.7666666666667,1602.31217025,48069.3651075,48069,1602.3,1.1474010936217383,1,0,2,2,1,3,b'NB_4_frameB_foil.png',1603.4595713436217,48103.787140308654,48103,1603.4333333333334
113,1603.4692217499999,48104.07665249999,48104,1603.4666666666667,1603.9357452499999,48118.072357499994,48118,1603.9333333333334,1605.4707692499999,48164.12307749999,48164,1605.4666666666667,0.22868181692319922,2,1,2,2,2,3,b'SB_3_frameB.png',1605.699451066923,48170.98353200769,48170,1605.6666666666667
114,1605.70498925,48171.1496775,48171,1605.7,1606.17156275,48185.1468825,48185,1606.1666666666667,1607.7055945,48231.167835,48231,1607.7,2.2883312956691952,1,1,2,2,2,3,b'NB_4_frameA.png',1609.9939257956692,48299.817773870076,48299,1609.9666666666667
115,1610.010072,48300.30216,48300,1610.0,1610.55995925,48316.7987775,48316,1610.5333333333333,1612.093709,48362.81127,48362,1612.0666666666666,2.1734518665034557,3,0,6,1,2,2,b'HB_4_frameA_foil.png',1614.2671608665034,48428.0148259951,48428,1614.2666666666667
116,1614.2767709999998,48428.30312999999,48428,1614.2666666666667,1614.7600155,48442.800465,48442,1614.7333333333333,1616.2940314999998,48488.82094499999,48488,1616.2666666666667,1.8531019710135297,1,0,6,1,2,2,b'NB_26_frameB_foil.png',1618.1471334710134,48544.4140041304,48544,1618.1333333333334
117,1618.15468575,48544.6405725,48544,1618.1333333333334,1618.7212405,48561.637215,48561,1618.7,1620.25577525,48607.6732575,48607,1620.2333333333333,1.311972146439075,2,1,2,2,2,3,b'SB_2_frameA.png',1621.567747396439,48647.03242189317,48647,1621.5666666666666
118,1621.5824089999999,48647.47227,48647,1621.5666666666666,1622.09897775,48662.9693325,48662,1622.0666666666666,1623.63326525,48708.9979575,48708,1623.6,2.6994299558136845,2,0,2,2,1,3,b'SB_2_frameB_foil.png',1626.3326952058137,48789.980856174414,48789,1626.3
119,1626.3371175,48790.113525,48790,1626.3333333333333,1626.85368025,48805.610407500004,48805,1626.8333333333333,1628.3883779999999,48851.65134,48851,1628.3666666666666,1.2724360185675323,3,1,2,2,2,3,b'HB_2_frameA.png',1629.6608140185674,48889.82442055702,48889,1629.6333333333334
120,1629.6667049999999,48890.00115,48890,1629.6666666666667,1630.1999227499998,48905.9976825,48905,1630.1666666666667,1631.7349407499999,48952.048222499994,48952,1631.7333333333333,0.704146512063744,3,0,6,1,2,2,b'HB_8_frameA_foil.png',1632.4390872620636,48973.17261786191,48973,1632.4333333333334
121,1632.45250775,48973.5752325,48973,1632.4333333333334,1632.935734,48988.07202,48988,1632.9333333333334,1634.469989,49034.099669999996,49034,1634.4666666666667,1.8010088323644595,3,0,6,1,2,2,b'HB_9_frameB_foil.png',1636.2709978323644,49088.12993497093,49088,1636.2666666666667
122,1636.28015775,49088.4047325,49088,1636.2666666666667,1636.79671375,49103.901412499996,49103,1636.7666666666667,1638.33133675,49149.9401025,49149,1638.3,1.0727942953817546,2,0,6,1,2,2,b'SB_1_frameA_foil.png',1639.4041310453817,49182.12393136145,49182,1639.4
123,1639.4075389999998,49182.226169999994,49182,1639.4,1639.890721,49196.72163,49196,1639.8666666666666,1641.42454125,49242.7362375,49242,1641.4,2.4942545422454714,3,1,6,1,1,2,b'HB_1_frameB.png',1643.9187957922454,49317.563873767365,49317,1643.9
124,1643.92456075,49317.736822499995,49317,1643.9,1644.4411235,49333.233705,49333,1644.4333333333334,1645.97533125,49379.2599375,49379,1645.9666666666667,0.9810420789508498,3,1,6,1,1,2,b'HB_4_frameA.png',1646.9563733289508,49408.691199868525,49408,1646.9333333333334
125,1646.960855,49408.82565,49408,1646.9333333333334,1647.41073225,49422.3219675,49422,1647.4,1648.94472275,49468.3416825,49468,1648.9333333333334,2.629246491691447,1,1,2,2,2,3,b'NB_13_frameB.png',1651.5739692416914,49547.219077250746,49547,1651.5666666666666
126,1651.58643225,49547.5929675,49547,1651.5666666666666,1652.0363512499998,49561.09053749999,49561,1652.0333333333333,1653.5705779999998,49607.11734,49607,1653.5666666666666,0.9923613530409057,2,1,2,2,2,3,b'SB_5_frameB.png',1654.5629393530407,49636.888180591224,49636,1654.5333333333333
127,1654.575094,49637.25282,49637,1654.5666666666666,1655.0416645,49651.249935,49651,1655.0333333333333,1656.575791,49697.27373,49697,1656.5666666666666,1.4081711285325582,1,0,3,2,1,2,b'NB_10_frameB_foil.png',1657.9839621285325,49739.51886385598,49739,1657.9666666666667
128,1657.98909925,49739.6729775,49739,1657.9666666666667,1658.538989,49756.169669999996,49756,1658.5333333333333,1660.07386725,49802.216017499995,49802,1660.0666666666666,1.8584679586056154,3,0,7,1,2,3,b'HB_3_frameB_foil.png',1661.9323352086055,49857.970056258164,49857,1661.9
129,1661.93974,49858.1922,49858,1661.9333333333334,1662.50629175,49875.1887525,49875,1662.5,1664.040571,49921.21713,49921,1664.0333333333333,2.575553808826953,3,1,2,2,2,3,b'HB_7_frameA.png',1666.616124808827,49998.483744264806,49998,1666.6
130,1666.62109775,49998.6329325,49998,1666.6,1667.0709917499998,50012.1297525,50012,1667.0666666666666,1668.60579775,50058.1739325,50058,1668.6,1.4099235083194799,3,1,6,1,1,2,b'HB_1_frameB.png',1670.0157212583194,50100.471637749586,50100,1670.0
131,1670.02327025,50100.6981075,50100,1670.0,1670.5731415,50117.194245,50117,1670.5666666666666,1672.1081855,50163.245565,50163,1672.1,1.7261016338161426,3,0,6,1,2,2,b'HB_1_frameB_foil.png',1673.8342871338161,50215.02861401448,50215,1673.8333333333333
132,1673.8480177499998,50215.4405325,50215,1673.8333333333333,1674.31458,50229.4374,50229,1674.3,1675.8494167499998,50275.482502499995,50275,1675.8333333333333,2.4374429134913953,2,0,6,1,2,2,b'SB_3_frameA_foil.png',1678.2868596634912,50348.60578990474,50348,1678.2666666666667
133,1678.298047,50348.94141,50348,1678.2666666666667,1678.8312664999999,50364.93799499999,50364,1678.8,1680.36554375,50410.9663125,50410,1680.3333333333333,1.3805595543672098,3,1,2,2,2,3,b'HB_6_frameA.png',1681.7461033043671,50452.38309913102,50452,1681.7333333333333
134,1681.7594119999999,50452.78236,50452,1681.7333333333333,1682.27596725,50468.2790175,50468,1682.2666666666667,1683.8101904999999,50514.305714999995,50514,1683.8,0.7421653843848617,3,0,3,2,1,2,b'HB_5_frameB_foil.png',1684.5523558843847,50536.57067653154,50536,1684.5333333333333
135,1684.56484875,50536.9454625,50536,1684.5333333333333,1685.1147382499998,50553.4421475,50553,1685.1,1686.6487175,50599.461525,50599,1686.6333333333334,3.4395203125313856,2,1,3,2,2,2,b'SB_3_frameA.png',1690.0882378125314,50702.64713437594,50702,1690.0666666666666
136,1690.0910605,50702.731815,50702,1690.0666666666666,1690.5409714999998,50716.229145,50716,1690.5333333333333,1692.074776,50762.243279999995,50762,1692.0666666666666,2.567898572582635,2,1,3,2,2,2,b'SB_8_frameB.png',1694.6426745725826,50839.280237177474,50839,1694.6333333333334
137,1694.64658175,50839.3974525,50839,1694.6333333333334,1695.16314825,50854.894447499995,50854,1695.1333333333334,1696.696814,50900.90442,50900,1696.6666666666667,0.8392571911681443,3,1,3,2,2,2,b'HB_2_frameA.png',1697.536071191168,50926.08213573504,50926,1697.5333333333333
138,1697.54005175,50926.2015525,50926,1697.5333333333333,1698.03994225,50941.198267499996,50941,1698.0333333333333,1699.574607,50987.23821,50987,1699.5666666666666,0.502326455716684,3,1,6,1,1,2,b'HB_3_frameB.png',1700.0769334557167,51002.308003671504,51002,1700.0666666666666
139,1700.0881177499998,51002.64353249999,51002,1700.0666666666666,1700.571321,51017.13963,51017,1700.5666666666666,1702.10521725,51063.1565175,51063,1702.1,1.3352269271490513,3,1,3,2,2,2,b'HB_1_frameA.png',1703.440444177149,51103.21332531447,51103,1703.4333333333334
140,1703.44877825,51103.4633475,51103,1703.4333333333334,1703.9653475,51118.960425,51118,1703.9333333333334,1705.4993445,51164.980335,51164,1705.4666666666667,2.8801183286268497,3,1,3,2,2,2,b'HB_9_frameB.png',1708.3794628286269,51251.383884858806,51251,1708.3666666666666
141,1708.3865839999999,51251.597519999996,51251,1708.3666666666666,1708.9031452499999,51267.0943575,51267,1708.9,1710.4371764999999,51313.115294999996,51313,1710.4333333333334,1.3245367894560331,1,0,3,2,1,2,b'NB_13_frameA_foil.png',1711.7617132894559,51352.85139868368,51352,1711.7333333333333
142,1711.77150025,51353.145007499996,51353,1711.7666666666667,1712.2547425,51367.642275,51367,1712.2333333333333,1713.78888825,51413.666647499995,51413,1713.7666666666667,1.6501869969069958,3,0,2,2,1,3,b'HB_2_frameA_foil.png',1715.439075246907,51463.172257407205,51463,1715.4333333333334
143,1715.4542697499999,51463.628092499996,51463,1715.4333333333334,1715.904172,51477.12516,51477,1715.9,1717.43851725,51523.155517499996,51523,1717.4333333333334,2.7431052162355627,3,1,2,2,2,3,b'HB_3_frameA.png',1720.1816224662355,51605.44867398706,51605,1720.1666666666667
144,1720.19246075,51605.7738225,51605,1720.1666666666667,1720.7090065,51621.270195,51621,1720.7,1722.24284475,51667.2853425,51667,1722.2333333333333,1.516741726307373,2,0,2,2,1,3,b'SB_3_frameB_foil.png',1723.7595864763073,51712.78759428922,51712,1723.7333333333333
145,1723.77233175,51713.1699525,51713,1723.7666666666667,1724.2555845,51727.667535,51727,1724.2333333333333,1725.789708,51773.69124,51773,1725.7666666666667,1.2778638820236665,1,0,2,2,1,3,b'NB_15_frameA_foil.png',1727.0675718820237,51812.02715646071,51812,1727.0666666666666
146,1727.0851195,51812.553585,51812,1727.0666666666666,1727.61835,51828.5505,51828,1727.6,1729.1530814999999,51874.592444999995,51874,1729.1333333333334,0.7631244709045859,3,0,6,1,2,2,b'HB_1_frameA_foil.png',1729.9162059709045,51897.48617912713,51897,1729.9
147,1729.92499675,51897.7499025,51897,1729.9,1730.4248929999999,51912.74679,51912,1730.4,1731.958778,51958.76334,51958,1731.9333333333334,0.31845737107505556,1,1,2,2,2,3,b'NB_29_frameB.png',1732.277235371075,51968.31706113225,51968,1732.2666666666667
148,1732.2882025,51968.646075,51968,1732.2666666666667,1732.83808575,51985.14257249999,51985,1732.8333333333333,1734.3718192499998,52031.1545775,52031,1734.3666666666666,1.0754976542448276,3,0,7,1,2,3,b'HB_9_frameA_foil.png',1735.4473169042446,52063.41950712734,52063,1735.4333333333334
149,1735.4541407499999,52063.624222499995,52063,1735.4333333333334,1735.9373787499999,52078.121362499995,52078,1735.9333333333334,1737.4713044999999,52124.139135,52124,1737.4666666666667,3.2429463538646814,1,1,2,2,2,3,b'NB_15_frameB.png',1740.7142508538645,52221.42752561594,52221,1740.7
150,1740.7289382499998,52221.8681475,52221,1740.7,1741.262155,52237.864649999996,52237,1741.2333333333333,1742.79665075,52283.8995225,52283,1742.7666666666667,2.082841741248558,2,0,2,2,1,3,b'SB_3_frameB_foil.png',1744.8794924912486,52346.38477473746,52346,1744.8666666666666
151,1744.88254575,52346.4763725,52346,1744.8666666666666,1745.3825199999999,52361.4756,52361,1745.3666666666666,1746.9173369999999,52407.52011,52407,1746.9,2.82637432008778,3,1,3,2,2,2,b'HB_1_frameB.png',1749.7437113200876,52492.31133960263,52492,1749.7333333333333
152,1749.7545605,52492.636815,52492,1749.7333333333333,1750.2544664999998,52507.633995,52507,1750.2333333333333,1751.788578,52553.65734,52553,1751.7666666666667,1.3552999884050223,2,1,3,2,2,2,b'SB_9_frameA.png',1753.143877988405,52594.31633965215,52594,1753.1333333333334
153,1753.1568392499998,52594.70517749999,52594,1753.1333333333334,1753.7233792499999,52611.701377499994,52611,1753.7,1755.2569764999998,52657.70929499999,52657,1755.2333333333333,0.4018270321539603,3,1,6,1,1,2,b'HB_3_frameA.png',1755.6588035321538,52669.76410596461,52669,1755.6333333333334
154,1755.6718065,52670.154195,52670,1755.6666666666667,1756.2216912499998,52686.65073749999,52686,1756.2,1757.75552125,52732.665637499995,52732,1757.7333333333333,0.12992193930404028,1,1,2,2,2,3,b'NB_16_frameA.png',1757.885443189304,52736.563295679116,52736,1757.8666666666666
155,1757.8932077499999,52736.7962325,52736,1757.8666666666666,1758.426436,52752.793079999996,52752,1758.4,1759.96012275,52798.8036825,52798,1759.9333333333334,1.3024287969747093,1,0,3,2,1,2,b'NB_27_frameA_foil.png',1761.2625515469747,52837.87654640924,52837,1761.2333333333333
156,1761.2696012499998,52838.0880375,52838,1761.2666666666667,1761.80269325,52854.0807975,52854,1761.8,1763.3371705,52900.115115,52900,1763.3333333333333,0.6791101083217654,2,0,6,1,2,2,b'SB_2_frameB_foil.png',1764.0162806083217,52920.48841824965,52920,1764.0
157,1764.0208665,52920.625995,52920,1764.0,1764.5207679999999,52935.62304,52935,1764.5,1766.0546235,52981.638705,52981,1766.0333333333333,1.0842294681278872,1,0,6,1,2,2,b'NB_19_frameA_foil.png',1767.1388529681278,53014.165589043834,53014,1767.1333333333334
158,1767.15433775,53014.6301325,53014,1767.1333333333334,1767.6541315,53029.623945,53029,1767.6333333333334,1769.18903875,53075.6711625,53075,1769.1666666666667,1.4802668366392027,1,0,6,1,2,2,b'NB_18_frameB_foil.png',1770.6693055866392,53120.07916759918,53120,1770.6666666666667
159,1770.67919225,53120.375767499994,53120,1770.6666666666667,1771.1957512499998,53135.87253749999,53135,1771.1666666666667,1772.7295124999998,53181.885375,53181,1772.7,0.12616397541569313,1,1,3,2,2,2,b'NB_14_frameA.png',1772.8556764754155,53185.67029426247,53185,1772.8333333333333
160,1772.863598,53185.90794,53185,1772.8333333333333,1773.36350025,53200.9050075,53200,1773.3333333333333,1774.89746875,53246.924062499995,53246,1774.8666666666666,2.114583867631154,1,1,2,2,2,3,b'NB_18_frameA.png',1777.012052617631,53310.36157852893,53310,1777.0
161,1777.0211467499998,53310.63440249999,53310,1777.0,1777.53765525,53326.1296575,53326,1777.5333333333333,1779.0714325,53372.142974999995,53372,1779.0666666666666,1.3751357998407912,1,1,2,2,2,3,b'NB_9_frameB.png',1780.4465682998407,53413.39704899522,53413,1780.4333333333334
162,1780.456175,53413.68525,53413,1780.4333333333334,1781.0060549999998,53430.18165,53430,1781.0,1782.5408444999998,53476.225334999996,53476,1782.5333333333333,0.4450830136120203,3,1,2,2,2,3,b'HB_4_frameB.png',1782.9859275136118,53489.577825408356,53489,1782.9666666666667
163,1783.001998,53490.05994,53490,1783.0,1783.4685625,53504.056875,53504,1783.4666666666667,1785.00257975,53550.0773925,53550,1785.0,0.3776901782111963,2,0,7,1,2,3,b'SB_1_frameA_foil.png',1785.3802699282112,53561.40809784634,53561,1785.3666666666666
164,1785.3894759999998,53561.684279999994,53561,1785.3666666666666,1785.90599925,53577.179977499996,53577,1785.9,1787.43976075,53623.1928225,53623,1787.4333333333334,3.031980596584617,3,0,7,1,2,3,b'HB_8_frameA_foil.png',1790.4717413465846,53714.15224039754,53714,1790.4666666666667
165,1790.4780724999998,53714.342175,53714,1790.4666666666667,1790.96130675,53728.8392025,53728,1790.9333333333334,1792.4950939999999,53774.85282,53774,1792.4666666666667,0.19595232830033638,2,0,3,2,1,2,b'SB_2_frameA_foil.png',1792.6910463283002,53780.73138984901,53780,1792.6666666666667
166,1792.700453,53781.013589999995,53781,1792.7,1793.20034275,53796.0102825,53796,1793.2,1794.73466975,53842.0400925,53842,1794.7333333333333,1.207963232533075,1,1,2,2,2,3,b'NB_27_frameB.png',1795.942632982533,53878.27898947599,53878,1795.9333333333334
167,1795.9505582499999,53878.5167475,53878,1795.9333333333334,1796.5171087499998,53895.5132625,53895,1796.5,1798.051025,53941.53075,53941,1798.0333333333333,0.10726249535218813,2,1,6,1,1,2,b'SB_7_frameB.png',1798.1582874953522,53944.748624860564,53944,1798.1333333333334
168,1798.16908025,53945.072407499996,53945,1798.1666666666667,1798.668985,53960.06955,53960,1798.6666666666667,1800.202843,54006.08529,54006,1800.2,2.2387160437647253,3,1,3,2,2,2,b'HB_5_frameA.png',1802.4415590437648,54073.246771312944,54073,1802.4333333333334
169,1802.4547372499999,54073.6421175,54073,1802.4333333333334,1802.971294,54089.13882,54089,1802.9666666666667,1804.5047607499998,54135.1428225,54135,1804.5,2.693369276363228,1,1,3,2,2,2,b'NB_23_frameB.png',1807.198130026363,54215.943900790895,54215,1807.1666666666667
170,1807.2046355,54216.139065,54216,1807.2,1807.7045395,54231.136185,54231,1807.7,1809.23929925,54277.1789775,54277,1809.2333333333333,1.651360389223555,3,1,3,2,2,2,b'HB_1_frameA.png',1810.8906596392235,54326.71978917671,54326,1810.8666666666666
171,1810.9071917499998,54327.21575249999,54327,1810.9,1811.37376625,54341.2129875,54341,1811.3666666666666,1812.9075464999999,54387.226395,54387,1812.9,0.0,2,1,1,0,1,0,b'SB_6_frameB.png',1812.9075464999999,54387.226395,54387,1812.9
172,1814.27666725,54428.3000175,54428,1814.2666666666667,1814.7932085,54443.796255,54443,1814.7666666666667,1816.32777475,54489.8332425,54489,1816.3,0.0,2,0,1,0,1,0,b'SB_1_frameB_foil.png',1816.32777475,54489.8332425,54489,1816.3
173,1815.3867652499998,54461.60295749999,54461,1815.3666666666666,1815.90332375,54477.0997125,54477,1815.9,1817.4370769999998,54523.11231,54523,1817.4333333333334,0.0,2,0,1,0,1,0,b'SB_4_frameB_foil.png',1817.4370769999998,54523.11231,54523,1817.4333333333334
174,1818.5903374999998,54557.710125,54557,1818.5666666666666,1819.140226,54574.20678,54574,1819.1333333333334,1820.675059,54620.251769999995,54620,1820.6666666666667,0.0,3,1,1,0,1,0,b'HB_5_frameB.png',1820.675059,54620.251769999995,54620,1820.6666666666667
175,1822.2078334999999,54666.235004999995,54666,1822.2,1822.7077332499998,54681.23199749999,54681,1822.7,1824.25802875,54727.7408625,54727,1824.2333333333333,2.0211138669619686,1,0,4,2,1,1,b'NB_20_frameB_foil.png',1826.279142616962,54788.37427850886,54788,1826.2666666666667
176,1826.2936379999999,54788.80914,54788,1826.2666666666667,1826.826822,54804.80466,54804,1826.8,1828.3605559999999,54850.816679999996,54850,1828.3333333333333,-0.8481380215016543,2,1,3,2,2,2,b'SB_1_frameB.png',1827.5124179784982,54825.37253935495,54825,1827.5
177,1827.5356984999999,54826.070954999996,54826,1827.5333333333333,1828.112259,54843.36777,54843,1828.1,1829.6119414999998,54888.358244999996,54888,1829.6,0.937102339536068,2,1,2,2,2,3,b'SB_30_frameA.png',1830.549043839536,54916.47131518608,54916,1830.5333333333333
178,1830.5787375,54917.362125,54917,1830.5666666666666,1831.1545737499998,54934.6372125,54934,1831.1333333333334,1832.66884525,54980.0653575,54980,1832.6666666666667,0.002232480968814343,2,0,6,1,2,2,b'SB_30_frameB_foil.png',1832.6710777309688,54980.13233192907,54980,1832.6666666666667
179,1832.73111825,54981.9335475,54981,1832.7,1833.29389425,54998.8168275,54998,1833.2666666666667,1834.80547975,55044.164392499995,55044,1834.8,2.3414041016440024,3,1,2,2,2,3,b'HB_30_frameB.png',1837.146883851644,55114.406515549315,55114,1837.1333333333334
180,1837.2013789999999,55116.04137,55116,1837.2,1837.7795305,55133.385915,55133,1837.7666666666667,1839.3072539999998,55179.217619999996,55179,1839.3,1.9765340813755756,3,0,2,2,1,3,b'HB_30_frameA_foil.png',1841.2837880813754,55238.51364244126,55238,1841.2666666666667
