trial_num,fixcross_time,fixation_HZ,fixation_bin,fixation_regarded,start_time,Fstart_HZ,Fstart_bin,Fstart_regarded,stop_time,Fstop_HZ,Fstop_bin,Fstop_regarded,RT,boundary_type,stimuli_type,resp_value,old_new,accuracy,confidence,frameName,response_time,response_HZ,response_bin,response_regarded
1,1103.3874127499998,33101.6223825,33101,1103.3666666666666,1103.95402425,33118.6207275,33118,1103.9333333333334,1105.48978225,33164.6934675,33164,1105.4666666666667,1.7748126335791312,3,0,6,1,2,2,b'HB_4_frameA_foil.png',1107.264594883579,33217.937846507375,33217,1107.2333333333333
2,1107.28426,33218.527799999996,33218,1107.2666666666667,1107.8009077499999,33234.0272325,33234,1107.8,1109.3345017499998,33280.035052499996,33280,1109.3333333333333,0.16706862784121768,1,1,3,2,2,2,b'NB_26_frameA.png',1109.501570377841,33285.04711133523,33285,1109.5
3,1109.519524,33285.58572,33285,1109.5,1110.052688,33301.58064,33301,1110.0333333333333,1111.586202,33347.58606,33347,1111.5666666666666,1.7876416273138602,3,1,3,2,2,2,b'HB_2_frameA.png',1113.3738436273138,33401.21530881942,33401,1113.3666666666666
4,1113.3909405,33401.728214999996,33401,1113.3666666666666,1113.8575415,33415.726245,33415,1113.8333333333333,1115.39108275,33461.732482499996,33461,1115.3666666666666,1.1649740687225858,2,1,3,2,2,2,b'SB_6_frameB.png',1116.5560568187225,33496.68170456168,33496,1116.5333333333333
5,1116.55970975,33496.7912925,33496,1116.5333333333333,1117.026324,33510.78972,33510,1117.0,1118.55975175,33556.7925525,33556,1118.5333333333333,1.9883345326979907,1,0,6,1,2,2,b'NB_9_frameA_foil.png',1120.548086282698,33616.44258848094,33616,1120.5333333333333
6,1120.5549597499999,33616.6487925,33616,1120.5333333333333,1121.02161,33630.6483,33630,1121.0,1122.555832,33676.674960000004,33676,1122.5333333333333,1.2479066746600438,2,1,2,2,2,3,b'SB_1_frameA.png',1123.80373867466,33714.112160239805,33714,1123.8
7,1123.8091305,33714.273915,33714,1123.8,1124.325734,33729.772020000004,33729,1124.3,1125.85941275,33775.7823825,33775,1125.8333333333333,2.00550927986842,3,1,2,2,2,3,b'HB_3_frameA.png',1127.8649220298685,33835.947660896054,33835,1127.8333333333333
8,1127.8669975,33836.009925,33836,1127.8666666666666,1128.4170387499998,33852.5111625,33852,1128.4,1129.9504722499998,33898.5141675,33898,1129.9333333333334,2.299140180059112,3,1,3,2,2,2,b'HB_1_frameB.png',1132.249612430059,33967.48837290177,33967,1132.2333333333333
9,1132.26307875,33967.8923625,33967,1132.2333333333333,1132.7463625,33982.390875,33982,1132.7333333333333,1134.28014025,34028.404207499996,34028,1134.2666666666667,0.7254360356891993,2,0,7,1,2,3,b'SB_4_frameA_foil.png',1135.0055762856891,34050.16728857067,34050,1135.0
10,1135.01368975,34050.410692499994,34050,1135.0,1135.546951,34066.40853,34066,1135.5333333333333,1137.08063625,34112.4190875,34112,1137.0666666666666,1.3971028101041156,2,1,3,2,2,2,b'SB_1_frameB.png',1138.477739060104,34154.33217180312,34154,1138.4666666666667
11,1138.4815925,34154.447775,34154,1138.4666666666667,1138.98163775,34169.4491325,34169,1138.9666666666667,1140.51512775,34215.453832499996,34215,1140.5,1.7400246370671084,1,0,6,1,2,2,b'NB_21_frameA_foil.png',1142.255152387067,34267.65457161201,34267,1142.2333333333333
12,1142.26137525,34267.8412575,34267,1142.2333333333333,1142.77792925,34283.3378775,34283,1142.7666666666667,1144.3115189999999,34329.34557,34329,1144.3,2.316036383217579,1,1,3,2,2,2,b'NB_22_frameA.png',1146.6275553832174,34398.826661496525,34398,1146.6
13,1146.6299219999999,34398.897659999995,34398,1146.6,1147.09655425,34412.8966275,34412,1147.0666666666666,1148.630258,34458.907739999995,34458,1148.6,1.6550835664311307,2,0,7,1,2,3,b'SB_1_frameA_foil.png',1150.285341566431,34508.56024699293,34508,1150.2666666666667
14,1150.2996745,34508.990235000005,34508,1150.2666666666667,1150.799548,34523.98644,34523,1150.7666666666667,1152.3329597499999,34569.98879249999,34569,1152.3,1.6957503819576232,1,0,7,1,2,3,b'NB_6_frameB_foil.png',1154.0287101319575,34620.86130395872,34620,1154.0
15,1154.04529775,34621.3589325,34621,1154.0333333333333,1154.51198075,34635.3594225,34635,1154.5,1156.0455789999999,34681.36736999999,34681,1156.0333333333333,1.0187167548810976,1,1,2,2,2,3,b'NB_12_frameA.png',1157.064295754881,34711.92887264643,34711,1157.0333333333333
16,1157.07399775,34712.2199325,34712,1157.0666666666666,1157.52398475,34725.719542499995,34725,1157.5,1159.0577719999999,34771.733159999996,34771,1159.0333333333333,1.658309562202703,1,1,2,2,2,3,b'NB_14_frameA.png',1160.7160815622026,34821.48244686608,34821,1160.7
17,1160.735027,34822.05081,34822,1160.7333333333333,1161.268234,34838.04702,34838,1161.2666666666667,1162.801694,34884.05082,34884,1162.8,1.801091970219204,2,1,2,2,2,3,b'SB_2_frameB.png',1164.6027859702192,34938.08357910658,34938,1164.6
18,1164.62160425,34938.6481275,34938,1164.6,1165.17146175,34955.1438525,34955,1165.1666666666667,1166.7049505,35001.148515,35001,1166.7,1.4667522650888714,3,0,6,1,2,2,b'HB_1_frameA_foil.png',1168.1717027650889,35045.15108295267,35045,1168.1666666666667
19,1168.175483,35045.26449,35045,1168.1666666666667,1168.675375,35060.26125,35060,1168.6666666666667,1170.20913875,35106.2741625,35106,1170.2,1.473780075142713,1,1,2,2,2,3,b'NB_3_frameB.png',1171.6829188251427,35150.48756475428,35150,1171.6666666666667
20,1171.68870675,35150.6612025,35150,1171.6666666666667,1172.138671,35164.16013,35164,1172.1333333333334,1173.6722157499999,35210.166472499994,35210,1173.6666666666667,0.8699823040442425,3,1,3,2,2,2,b'HB_4_frameA.png',1174.542198054044,35236.26594162132,35236,1174.5333333333333
21,1174.543977,35236.31931,35236,1174.5333333333333,1175.01066175,35250.319852500004,35250,1175.0,1176.54442725,35296.3328175,35296,1176.5333333333333,0.24429522363789147,1,1,3,2,2,2,b'NB_9_frameB.png',1176.7887224736378,35303.661674209136,35303,1176.7666666666667
22,1176.7928359999999,35303.785079999994,35303,1176.7666666666667,1177.27603725,35318.281117499995,35318,1177.2666666666667,1178.80954825,35364.2864475,35364,1178.8,1.9918032322329964,2,1,2,2,2,3,b'SB_3_frameA.png',1180.801351482233,35424.04054446699,35424,1180.8
23,1180.818246,35424.54738,35424,1180.8,1181.3014635,35439.043905,35439,1181.3,1182.83525225,35485.0575675,35485,1182.8333333333333,1.1823840450651915,2,0,6,1,2,2,b'SB_7_frameA_foil.png',1184.0176362950651,35520.52908885195,35520,1184.0
24,1184.0293327499999,35520.879982499995,35520,1184.0,1184.5625115,35536.875345,35536,1184.5333333333333,1186.12664875,35583.7994625,35583,1186.1,1.0090495444219414,1,0,7,1,2,3,b'NB_27_frameA_foil.png',1187.135698294422,35614.070948832654,35614,1187.1333333333334
25,1187.15081525,35614.5244575,35614,1187.1333333333334,1187.667448,35630.02344,35630,1187.6666666666667,1189.20094475,35676.0283425,35676,1189.2,1.0178460837414605,2,1,2,2,2,3,b'SB_1_frameA.png',1190.2187908337414,35706.563725012245,35706,1190.2
26,1190.22757275,35706.8271825,35706,1190.2,1190.7274175,35721.822525,35721,1190.7,1192.260929,35767.82787,35767,1192.2333333333333,1.1959630805049528,2,1,2,2,2,3,b'SB_2_frameA.png',1193.456892080505,35803.70676241515,35803,1193.4333333333334
27,1193.46234725,35803.8704175,35803,1193.4333333333334,1193.962259,35818.86777,35818,1193.9333333333334,1195.4959425,35864.878274999995,35864,1195.4666666666667,0.8345791129213467,1,0,7,1,2,3,b'NB_7_frameA_foil.png',1196.3305216129213,35889.915648387636,35889,1196.3
28,1196.344326,35890.32978,35890,1196.3333333333333,1196.84425025,35905.3275075,35905,1196.8333333333333,1198.37788875,35951.3366625,35951,1198.3666666666666,0.9213889483708044,1,0,7,1,2,3,b'NB_12_frameB_foil.png',1199.2992776983708,35978.978330951126,35978,1199.2666666666667
29,1199.30875,35979.2625,35979,1199.3,1199.85867825,35995.7603475,35995,1199.8333333333333,1201.3920759999999,36041.762279999995,36041,1201.3666666666666,1.0462737822817871,2,1,2,2,2,3,b'SB_2_frameA.png',1202.4383497822816,36073.15049346845,36073,1202.4333333333334
30,1202.456849,36073.70547,36073,1202.4333333333334,1202.973344,36089.20032,36089,1202.9666666666667,1204.507097,36135.212909999995,36135,1204.5,1.226345927660077,2,1,2,2,2,3,b'SB_5_frameA.png',1205.73344292766,36172.0032878298,36172,1205.7333333333333
31,1205.7511895,36172.535685,36172,1205.7333333333333,1206.25108275,36187.5324825,36187,1206.2333333333333,1207.7848314999999,36233.544944999994,36233,1207.7666666666667,1.1007717776265054,1,1,3,2,2,2,b'NB_17_frameB.png',1208.8856032776264,36266.56809832879,36266,1208.8666666666666
32,1208.888002,36266.64006,36266,1208.8666666666666,1209.4046485,36282.139455,36282,1209.4,1210.938441,36328.15323,36328,1210.9333333333334,0.6073034518340137,1,1,2,2,2,3,b'NB_25_frameB.png',1211.545744451834,36346.372333555024,36346,1211.5333333333333
33,1211.5607802499999,36346.82340749999,36346,1211.5333333333333,1212.06068175,36361.8204525,36361,1212.0333333333333,1213.5943949999998,36407.831849999995,36407,1213.5666666666666,1.484063579751819,1,1,3,2,2,2,b'NB_5_frameB.png',1215.0784585797517,36452.35375739255,36452,1215.0666666666666
34,1215.08284575,36452.4853725,36452,1215.0666666666666,1215.56606075,36466.9818225,36466,1215.5333333333333,1217.09982275,36512.9946825,36512,1217.0666666666666,1.8298649079588358,2,0,7,1,2,3,b'SB_1_frameB_foil.png',1218.9296876579588,36567.890629738766,36567,1218.9
35,1218.9410767499999,36568.23230249999,36568,1218.9333333333334,1219.441174,36583.23522,36583,1219.4333333333334,1220.9745249999999,36629.23574999999,36629,1220.9666666666667,2.349607651676706,3,1,2,2,2,3,b'HB_9_frameA.png',1223.3241326516766,36699.7239795503,36699,1223.3
36,1223.32878775,36699.8636325,36699,1223.3,1223.8287814999999,36714.863444999995,36714,1223.8,1225.36238075,36760.8714225,36760,1225.3333333333333,1.2245602196871914,2,0,7,1,2,3,b'SB_1_frameB_foil.png',1226.5869409696872,36797.60822909062,36797,1226.5666666666666
37,1226.5897945,36797.693835,36797,1226.5666666666666,1227.1062997499998,36813.18899249999,36813,1227.1,1228.63988525,36859.1965575,36859,1228.6333333333334,1.5480821292003384,1,1,4,2,2,1,b'NB_23_frameB.png',1230.1879673792002,36905.63902137601,36905,1230.1666666666667
38,1230.1951225,36905.853675,36905,1230.1666666666667,1230.66175125,36919.852537499995,36919,1230.6333333333334,1232.1952545,36965.857635,36965,1232.1666666666667,1.057946333055952,3,0,6,1,2,2,b'HB_8_frameA_foil.png',1233.2532008330559,36997.596024991675,36997,1233.2333333333333
39,1233.2602035,36997.806104999996,36997,1233.2333333333333,1233.7601714999998,37012.805145,37012,1233.7333333333333,1235.29374725,37058.8124175,37058,1235.2666666666667,1.2715278899268014,2,1,3,2,2,2,b'SB_9_frameA.png',1236.5652751399268,37096.9582541978,37096,1236.5333333333333
40,1236.5816145,37097.448435,37097,1236.5666666666666,1237.0482175,37111.446525,37111,1237.0333333333333,1238.5818192499999,37157.45457749999,37157,1238.5666666666666,0.49407617969882267,2,1,2,2,2,3,b'SB_3_frameB.png',1239.0758954296987,37172.27686289096,37172,1239.0666666666666
41,1239.07965625,37172.3896875,37172,1239.0666666666666,1239.5963232499998,37187.889697499995,37187,1239.5666666666666,1241.12984225,37233.8952675,37233,1241.1,0.7697829156713851,2,0,6,1,2,2,b'SB_8_frameA_foil.png',1241.8996251656713,37256.98875497014,37256,1241.8666666666666
42,1241.9186295,37257.558885,37257,1241.9,1242.43516075,37273.0548225,37273,1242.4333333333334,1243.9688885,37319.066655,37319,1243.9666666666667,2.344122009650164,2,1,3,2,2,2,b'SB_9_frameB.png',1246.3130105096502,37389.39031528951,37389,1246.3
43,1246.321612,37389.64836,37389,1246.3,1246.804809,37404.14427,37404,1246.8,1248.3383952499998,37450.151857499994,37450,1248.3333333333333,0.7094452683304553,3,1,3,2,2,2,b'HB_2_frameA.png',1249.0478405183303,37471.43521554991,37471,1249.0333333333333
44,1249.05972225,37471.7916675,37471,1249.0333333333333,1249.5263825,37485.791475,37485,1249.5,1251.06002675,37531.800802499994,37531,1251.0333333333333,2.0548327325177524,3,1,3,2,2,2,b'HB_3_frameA.png',1253.1148594825177,37593.44578447553,37593,1253.1
45,1253.1223372499999,37593.6701175,37593,1253.1,1253.6222725,37608.668175,37608,1253.6,1255.1558465,37654.675395,37654,1255.1333333333334,1.0253778407040954,2,0,6,1,2,2,b'SB_3_frameB_foil.png',1256.1812243407041,37685.436730221125,37685,1256.1666666666667
46,1256.1950742499998,37685.85222749999,37685,1256.1666666666667,1256.6949144999999,37700.847434999996,37700,1256.6666666666667,1258.2286554999998,37746.859664999996,37746,1258.2,0.04403704246033158,2,0,7,1,2,3,b'SB_5_frameB_foil.png',1258.2726925424602,37748.1807762738,37748,1258.2666666666667
47,1258.2832345,37748.497035,37748,1258.2666666666667,1258.833336,37765.00008,37765,1258.8333333333333,1260.3666652499999,37810.9999575,37810,1260.3333333333333,2.1267017627251334,3,0,7,1,2,3,b'HB_7_frameB_foil.png',1262.493367012725,37874.80101038175,37874,1262.4666666666667
48,1262.4965915,37874.897745,37874,1262.4666666666667,1263.0298619999999,37890.89586,37890,1263.0,1264.56348875,37936.904662500005,37936,1264.5333333333333,0.9877754263561656,1,0,6,1,2,2,b'NB_14_frameB_foil.png',1265.5512641763562,37966.537925290686,37966,1265.5333333333333
49,1265.5546865,37966.640595,37966,1265.5333333333333,1266.0379345,37981.138034999996,37981,1266.0333333333333,1267.571686,38027.15058,38027,1267.5666666666666,1.0163075363234384,3,1,2,2,2,3,b'HB_8_frameB.png',1268.5879935363234,38057.639806089705,38057,1268.5666666666666
50,1268.6027159999999,38058.08147999999,38058,1268.6,1269.11927825,38073.5783475,38073,1269.1,1270.6527455,38119.582365,38119,1270.6333333333334,1.139104761856288,2,0,7,1,2,3,b'SB_9_frameB_foil.png',1271.7918502618563,38153.75550785569,38153,1271.7666666666667
51,1271.79903975,38153.9711925,38153,1271.7666666666667,1272.31558525,38169.4675575,38169,1272.3,1273.84920975,38215.4762925,38215,1273.8333333333333,2.2159885577639216,3,0,7,1,2,3,b'HB_2_frameB_foil.png',1276.065198307764,38281.95594923292,38281,1276.0333333333333
52,1276.06907775,38282.0723325,38282,1276.0666666666666,1276.55235975,38296.5707925,38296,1276.5333333333333,1278.08617125,38342.5851375,38342,1278.0666666666666,0.60383490901404,2,1,2,2,2,3,b'SB_4_frameB.png',1278.690006159014,38360.70018477042,38360,1278.6666666666667
53,1278.701982,38361.059460000004,38361,1278.7,1279.1684925,38375.054775,38375,1279.1666666666667,1280.70216775,38421.065032499995,38421,1280.7,1.621087666706444,3,1,2,2,2,3,b'HB_3_frameB.png',1282.3232554167064,38469.69766250119,38469,1282.3
54,1282.3412035,38470.236104999996,38470,1282.3333333333333,1282.8744875,38486.234625,38486,1282.8666666666666,1284.4081715,38532.245145,38532,1284.4,0.9953779035167827,1,1,4,2,2,1,b'NB_10_frameA.png',1285.4035494035168,38562.106482105504,38562,1285.4
55,1285.41402625,38562.4207875,38562,1285.4,1285.91394275,38577.418282499995,38577,1285.9,1287.447614,38623.42842,38623,1287.4333333333334,0.8700511845308938,2,1,2,2,2,3,b'SB_4_frameA.png',1288.3176651845308,38649.52995553592,38649,1288.3
56,1288.32353475,38649.706042499995,38649,1288.3,1288.7900842499998,38663.7025275,38663,1288.7666666666667,1290.32383125,38709.7149375,38709,1290.3,2.686883575262982,1,1,3,2,2,2,b'NB_2_frameA.png',1293.010714825263,38790.32144475789,38790,1293.0
57,1293.02260775,38790.678232499995,38790,1293.0,1293.555854,38806.67562,38806,1293.5333333333333,1295.0895202499999,38852.685607499996,38852,1295.0666666666666,2.807434734490016,3,1,2,2,2,3,b'HB_2_frameB.png',1297.8969549844899,38936.90864953469,38936,1297.8666666666666
58,1297.90529975,38937.1589925,38937,1297.9,1298.40516725,38952.1550175,38952,1298.4,1299.93871025,38998.1613075,38998,1299.9333333333334,1.522500657763885,2,0,6,1,2,2,b'SB_1_frameB_foil.png',1301.4612109077639,39043.836327232915,39043,1301.4333333333334
59,1301.47991375,39044.397412499995,39044,1301.4666666666667,1302.04659825,39061.3979475,39061,1302.0333333333333,1303.5801012499999,39107.40303749999,39107,1303.5666666666666,1.3934486349080544,3,0,6,1,2,2,b'HB_2_frameB_foil.png',1304.973549884908,39149.20649654724,39149,1304.9666666666667
60,1304.99242375,39149.772712499995,39149,1304.9666666666667,1305.45899975,39163.7699925,39163,1305.4333333333334,1306.99262125,39209.7786375,39209,1306.9666666666667,2.347994788096912,1,1,3,2,2,2,b'NB_16_frameA.png',1309.3406160380969,39280.2184811429,39280,1309.3333333333333
61,1309.35512075,39280.6536225,39280,1309.3333333333333,1309.8883254999998,39296.649764999995,39296,1309.8666666666666,1311.4218715,39342.656145,39342,1311.4,2.040530251486416,2,1,4,2,2,1,b'SB_1_frameA.png',1313.4624017514864,39403.87205254459,39403,1313.4333333333334
62,1313.46471925,39403.941577499994,39403,1313.4333333333334,1313.9813605,39419.440814999994,39419,1313.9666666666667,1315.51505125,39465.4515375,39465,1315.5,0.4978056097188528,1,1,4,2,2,1,b'NB_18_frameA.png',1316.0128568597188,39480.38570579157,39480,1316.0
63,1316.0255762499999,39480.7672875,39480,1316.0,1316.525526,39495.765779999994,39495,1316.5,1318.059151,39541.774529999995,39541,1318.0333333333333,1.9208635130216862,2,1,4,2,2,1,b'SB_1_frameB.png',1319.9800145130216,39599.40043539065,39599,1319.9666666666667
64,1319.9897469999999,39599.692409999996,39599,1319.9666666666667,1320.4896285,39614.688855,39614,1320.4666666666667,1322.023172,39660.695159999996,39660,1322.0,1.752952478669613,1,1,2,2,2,3,b'NB_24_frameA.png',1323.7761244786695,39713.283734360084,39713,1323.7666666666667
65,1323.780356,39713.41068,39713,1323.7666666666667,1324.2637865,39727.913595,39727,1324.2333333333333,1325.7973702499999,39773.9211075,39773,1325.7666666666667,1.367905531089491,3,1,3,2,2,2,b'HB_1_frameA.png',1327.1652757810893,39814.95827343268,39814,1327.1333333333334
66,1327.17727175,39815.3181525,39815,1327.1666666666667,1327.67721125,39830.3163375,39830,1327.6666666666667,1329.210812,39876.32436,39876,1329.2,0.344167535793531,2,1,4,2,2,1,b'SB_5_frameA.png',1329.5549795357936,39886.649386073805,39886,1329.5333333333333
67,1329.5577025,39886.731075,39886,1329.5333333333333,1330.0409527499999,39901.22858249999,39901,1330.0333333333333,1331.57448175,39947.23445249999,39947,1331.5666666666666,2.233312740938345,2,1,3,2,2,2,b'SB_4_frameB.png',1333.8077944909382,40014.23383472815,40014,1333.8
68,1333.8170745,40014.512235,40014,1333.8,1334.3169337499999,40029.508012499995,40029,1334.3,1335.8505842499999,40075.51752749999,40075,1335.8333333333333,1.442146492199754,3,0,7,1,2,3,b'HB_8_frameA_foil.png',1337.2927307421996,40118.78192226599,40118,1337.2666666666667
69,1337.2966245,40118.898735,40118,1337.2666666666667,1337.7966235,40133.898705,40133,1337.7666666666667,1339.3302549999999,40179.907649999994,40179,1339.3,3.0456329197531886,3,1,2,2,2,3,b'HB_8_frameB.png',1342.375887919753,40271.27663759259,40271,1342.3666666666666
70,1342.3942725,40271.828174999995,40271,1342.3666666666666,1342.9108199999998,40287.32459999999,40287,1342.9,1344.4444655,40333.333965,40333,1344.4333333333334,0.3639352455538756,2,1,4,2,2,1,b'SB_6_frameB.png',1344.8084007455539,40344.252022366614,40344,1344.8
71,1344.8217905,40344.653715,40344,1344.8,1345.30505525,40359.1516575,40359,1345.3,1346.8385282499999,40405.1558475,40405,1346.8333333333333,1.0267101883400755,3,0,6,1,2,2,b'HB_3_frameA_foil.png',1347.86523843834,40435.9571531502,40435,1347.8333333333333
72,1347.8723854999998,40436.171565,40436,1347.8666666666666,1348.3557735,40450.673205,40450,1348.3333333333333,1349.889048,40496.67144,40496,1349.8666666666666,1.2115467747589719,3,1,2,2,2,3,b'HB_9_frameB.png',1351.100594774759,40533.01784324277,40533,1351.1
73,1351.118729,40533.56187,40533,1351.1,1351.61869775,40548.5609325,40548,1351.6,1353.15230925,40594.5692775,40594,1353.1333333333334,0.9468158170202514,1,0,6,1,2,2,b'NB_26_frameB_foil.png',1354.0991250670202,40622.97375201061,40622,1354.0666666666666
74,1354.1031005,40623.093015,40623,1354.1,1354.5696357499999,40637.0890725,40637,1354.5666666666666,1356.103169,40683.095069999996,40683,1356.1,1.6283407914670534,3,1,2,2,2,3,b'HB_1_frameB.png',1357.731509791467,40731.94529374401,40731,1357.7
75,1357.73773025,40732.1319075,40732,1357.7333333333333,1358.204483,40746.13449,40746,1358.2,1359.73789975,40792.1369925,40792,1359.7333333333333,1.7576087294273748,3,1,2,2,2,3,b'HB_7_frameA.png',1361.4955084794274,40844.86525438282,40844,1361.4666666666667
76,1361.49873175,40844.9619525,40844,1361.4666666666667,1362.01544375,40860.463312500004,40860,1362.0,1363.549131,40906.47393,40906,1363.5333333333333,1.019826858968372,1,0,5,1,2,1,b'NB_16_frameB_foil.png',1364.5689578589684,40937.06873576905,40937,1364.5666666666666
77,1364.5878197499999,40937.6345925,40937,1364.5666666666666,1365.0543794999999,40951.63138499999,40951,1365.0333333333333,1366.5880685,40997.642055,40997,1366.5666666666666,0.5677747794488823,3,1,2,2,2,3,b'HB_6_frameB.png',1367.1558432794488,41014.67529838347,41014,1367.1333333333334
78,1367.1603452499999,41014.8103575,41014,1367.1333333333334,1367.627006,41028.81018,41028,1367.6,1369.16038525,41074.8115575,41074,1369.1333333333334,0.9902093285181763,3,0,7,1,2,3,b'HB_6_frameA_foil.png',1370.1505945785182,41104.51783735555,41104,1370.1333333333334
79,1370.16161175,41104.8483525,41104,1370.1333333333334,1370.6947599999999,41120.8428,41120,1370.6666666666667,1372.22825975,41166.8477925,41166,1372.2,2.2142445366807806,2,0,6,1,2,2,b'SB_4_frameA_foil.png',1374.4425042866808,41233.27512860042,41233,1374.4333333333334
80,1374.4499704999998,41233.499115,41233,1374.4333333333334,1375.0165075,41250.495225,41250,1375.0,1376.55016725,41296.5050175,41296,1376.5333333333333,0.7853764652809332,2,0,6,1,2,2,b'SB_9_frameA_foil.png',1377.335543715281,41320.066311458424,41320,1377.3333333333333
81,1377.3409625,41320.228875,41320,1377.3333333333333,1377.907518,41337.22554,41337,1377.9,1379.4409635,41383.228904999996,41383,1379.4333333333334,1.1348067463204643,2,0,6,1,2,2,b'SB_6_frameA_foil.png',1380.5757702463204,41417.273107389614,41417,1380.5666666666666
82,1380.5888415,41417.665245,41417,1380.5666666666666,1381.0388475,41431.165425,41431,1381.0333333333333,1382.57236175,41477.1708525,41477,1382.5666666666666,0.1776966865909344,3,1,3,2,2,2,b'HB_1_frameB.png',1382.750058436591,41482.50175309773,41482,1382.7333333333333
83,1382.7663595,41482.990784999995,41482,1382.7333333333333,1383.24959025,41497.4877075,41497,1383.2333333333333,1384.7831744999999,41543.495234999995,41543,1384.7666666666667,0.7959766787262197,3,1,3,2,2,2,b'HB_5_frameB.png',1385.579151178726,41567.374535361785,41567,1385.5666666666666
84,1385.59148925,41567.7446775,41567,1385.5666666666666,1386.091336,41582.740079999996,41582,1386.0666666666666,1387.62478475,41628.7435425,41628,1387.6,0.7449169395713398,1,0,6,1,2,2,b'NB_18_frameB_foil.png',1388.3697016895712,41651.09105068714,41651,1388.3666666666666
85,1388.37286325,41651.1858975,41651,1388.3666666666666,1388.92275425,41667.6826275,41667,1388.9,1390.4564237499999,41713.69271249999,41713,1390.4333333333334,2.742760605615331,2,1,2,2,2,3,b'SB_2_frameA.png',1393.1991843556152,41795.97553066845,41795,1393.1666666666667
86,1393.2079065,41796.237195,41796,1393.2,1393.74106375,41812.2319125,41812,1393.7333333333333,1395.27460025,41858.238007500004,41858,1395.2666666666667,0.19754215158354782,1,1,4,2,2,1,b'NB_27_frameB.png',1395.4721424015836,41864.16427204751,41864,1395.4666666666667
87,1395.48205725,41864.4617175,41864,1395.4666666666667,1395.9819619999998,41879.45886,41879,1395.9666666666667,1397.5156435,41925.469305,41925,1397.5,1.271236471240627,3,1,2,2,2,3,b'HB_5_frameA.png',1398.7868799712405,41963.606399137214,41963,1398.7666666666667
88,1398.792825,41963.78475,41963,1398.7666666666667,1399.2594675,41977.784025,41977,1399.2333333333333,1400.79310175,42023.7930525,42023,1400.7666666666667,2.1873800705398025,1,0,6,1,2,2,b'NB_5_frameA_foil.png',1402.9804818205398,42089.41445461619,42089,1402.9666666666667
89,1402.99612875,42089.8838625,42089,1402.9666666666667,1403.545967,42106.379010000004,42106,1403.5333333333333,1405.07963875,42152.389162499996,42152,1405.0666666666666,1.6141714151654014,2,1,2,2,2,3,b'SB_3_frameA.png',1406.6938101651654,42200.81430495496,42200,1406.6666666666667
90,1406.70362925,42201.108877499995,42201,1406.7,1407.23698175,42217.1094525,42217,1407.2333333333333,1408.77056825,42263.117047499996,42263,1408.7666666666667,-0.13357372303289594,1,1,3,2,2,2,b'NB_7_frameB.png',1408.636994526967,42259.10983580901,42259,1408.6333333333334
91,1408.64563325,42259.3689975,42259,1408.6333333333334,1409.095487,42272.864610000004,42272,1409.0666666666666,1410.629019,42318.87057,42318,1410.6,0.9624422864690132,3,0,7,1,2,3,b'HB_4_frameB_foil.png',1411.591461286469,42347.74383859407,42347,1411.5666666666666
92,1411.60866275,42348.259882499995,42348,1411.6,1412.125349,42363.760469999994,42363,1412.1,1413.65879275,42409.7637825,42409,1413.6333333333334,1.2105894739252108,1,1,4,2,2,1,b'NB_1_frameB.png',1414.8693822239252,42446.081466717755,42446,1414.8666666666666
93,1414.87640175,42446.2920525,42446,1414.8666666666666,1415.39304475,42461.7913425,42461,1415.3666666666666,1416.92654625,42507.7963875,42507,1416.9,-0.2574937167337339,3,0,6,1,2,2,b'HB_7_frameA_foil.png',1416.6690525332663,42500.07157599799,42500,1416.6666666666667
94,1416.68442425,42500.532727499995,42500,1416.6666666666667,1417.21775175,42516.5325525,42516,1417.2,1418.751426,42562.54278,42562,1418.7333333333333,1.46989528422273,1,1,2,2,2,3,b'NB_8_frameA.png',1420.2213212842228,42606.639638526685,42606,1420.2
95,1420.237069,42607.11207,42607,1420.2333333333333,1420.720405,42621.61215,42621,1420.7,1422.254045,42667.621349999994,42667,1422.2333333333333,0.06849146006061346,1,1,2,2,2,3,b'NB_30_frameA.png',1422.3225364600605,42669.67609380181,42669,1422.3
96,1422.32474775,42669.742432499996,42669,1422.3,1422.8414355,42685.243065,42685,1422.8333333333333,1424.3750619999998,42731.25186,42731,1424.3666666666666,2.300003613378067,2,0,6,1,2,2,b'SB_4_frameB_foil.png',1426.675065613378,42800.25196840134,42800,1426.6666666666667
97,1426.6809165,42800.427494999996,42800,1426.6666666666667,1427.16413075,42814.9239225,42814,1427.1333333333334,1428.7201845,42861.605534999995,42861,1428.7,1.4204626868977357,2,0,5,1,2,1,b'SB_6_frameA_foil.png',1430.1406471868977,42904.21941560693,42904,1430.1333333333334
98,1430.1514312499999,42904.542937499995,42904,1430.1333333333334,1430.6347162499999,42919.0414875,42919,1430.6333333333334,1432.16818275,42965.0454825,42965,1432.1666666666667,1.2071104688620835,3,1,3,2,2,2,b'HB_6_frameA.png',1433.375293218862,43001.25879656586,43001,1433.3666666666666
99,1433.38420675,43001.5262025,43001,1433.3666666666666,1433.8340592499999,43015.0217775,43015,1433.8333333333333,1435.36774875,43061.0324625,43061,1435.3666666666666,1.9299490025459818,1,0,5,1,2,1,b'NB_17_frameA_foil.png',1437.297697752546,43118.930932576375,43118,1437.2666666666667
100,1437.3085125,43119.255375,43119,1437.3,1437.80835775,43134.2507325,43134,1437.8,1439.341757,43180.25271,43180,1439.3333333333333,1.4472789848532557,1,1,2,2,2,3,b'NB_13_frameB.png',1440.7890359848532,43223.671079545595,43223,1440.7666666666667
101,1440.801407,43224.04221,43224,1440.8,1441.3347345,43240.042035,43240,1441.3333333333333,1442.8682875,43286.048624999996,43286,1442.8666666666666,2.610887699145678,2,0,5,1,2,1,b'SB_3_frameA_foil.png',1445.4791751991456,43364.375255974366,43364,1445.4666666666667
102,1445.4871165,43364.613495,43364,1445.4666666666667,1446.0370102499999,43381.1103075,43381,1446.0333333333333,1447.5705994999998,43427.117985,43427,1447.5666666666666,1.1672385589918122,1,1,2,2,2,3,b'NB_21_frameB.png',1448.7378380589917,43462.13514176975,43462,1448.7333333333333
103,1448.7447135,43462.341405,43462,1448.7333333333333,1449.27785225,43478.3355675,43478,1449.2666666666667,1450.811454,43524.34362,43524,1450.8,0.9188586458622012,1,1,2,2,2,3,b'NB_15_frameB.png',1451.730312645862,43551.909379375866,43551,1451.7
104,1451.740899,43552.226969999996,43552,1451.7333333333333,1452.257473,43567.72418999999,43567,1452.2333333333333,1453.79081275,43613.7243825,43613,1453.7666666666667,0.5073090531132038,3,1,2,2,2,3,b'HB_4_frameB.png',1454.2981218031132,43628.9436540934,43628,1454.2666666666667
105,1454.31264425,43629.3793275,43629,1454.3,1454.8292075,43644.876225,43644,1454.8,1456.3628595,43690.885785,43690,1456.3333333333333,1.0820259401607473,1,0,6,1,2,2,b'NB_11_frameA_foil.png',1457.4448854401608,43723.346563204825,43723,1457.4333333333334
106,1457.44971775,43723.4915325,43723,1457.4333333333334,1457.9329495,43737.988485,43737,1457.9,1459.46645075,43783.9935225,43783,1459.4333333333334,1.7808270973728213,1,0,7,1,2,3,b'NB_8_frameB_foil.png',1461.2472778473727,43837.418335421185,43837,1461.2333333333333
107,1461.2502319999999,43837.50696,43837,1461.2333333333333,1461.8002422499999,43854.0072675,43854,1461.8,1463.3337695,43900.013085,43900,1463.3333333333333,1.4070850326697837,2,0,2,2,1,3,b'SB_3_frameB_foil.png',1464.7408545326698,43942.225635980096,43942,1464.7333333333333
108,1464.74514475,43942.3543425,43942,1464.7333333333333,1465.2783425,43958.350275,43958,1465.2666666666667,1466.8120255,44004.360765,44004,1466.8,0.6190001626837329,3,0,3,2,1,2,b'HB_9_frameA_foil.png',1467.4310256626836,44022.930769880506,44022,1467.4
109,1467.44750525,44023.4251575,44023,1467.4333333333334,1468.01404875,44040.4214625,44040,1468.0,1469.5476987499999,44086.430962499995,44086,1469.5333333333333,1.0862723851605551,2,1,6,1,1,2,b'SB_5_frameB.png',1470.6339711351604,44119.01913405481,44119,1470.6333333333334
110,1470.65192175,44119.5576525,44119,1470.6333333333334,1471.20190125,44136.0570375,44136,1471.2,1472.735436,44182.06308,44182,1472.7333333333333,1.4042032838970044,3,1,2,2,2,3,b'HB_5_frameA.png',1474.139639283897,44224.18917851691,44224,1474.1333333333334
111,1474.1523802499999,44224.57140749999,44224,1474.1333333333334,1474.702147,44241.06441,44241,1474.7,1476.23584525,44287.0753575,44287,1476.2333333333333,1.217695430628737,3,1,3,2,2,2,b'HB_1_frameA.png',1477.4535406806287,44323.606220418864,44323,1477.4333333333334
112,1477.4680855,44324.042564999996,44324,1477.4666666666667,1477.9847264999999,44339.541795,44339,1477.9666666666667,1479.51829675,44385.5489025,44385,1479.5,1.3089480836842995,3,0,7,1,2,3,b'HB_4_frameA_foil.png',1480.8272448336843,44424.81734501053,44424,1480.8
113,1480.834386,44425.03158,44425,1480.8333333333333,1481.31765075,44439.5295225,44439,1481.3,1482.85095075,44485.528522500004,44485,1482.8333333333333,1.5031877270175755,3,0,6,1,2,2,b'HB_5_frameB_foil.png',1484.3541384770176,44530.62415431053,44530,1484.3333333333333
114,1484.3703105,44531.109315,44531,1484.3666666666666,1484.83700375,44545.1101125,44545,1484.8333333333333,1486.37200525,44591.1601575,44591,1486.3666666666666,1.5153946658865607,3,1,7,1,1,3,b'HB_2_frameA.png',1487.8873999158866,44636.6219974766,44636,1487.8666666666666
115,1487.898477,44636.95431,44636,1487.8666666666666,1488.3984735,44651.954204999995,44651,1488.3666666666666,1489.93208925,44697.9626775,44697,1489.9,-0.09804503262967046,1,1,3,2,2,2,b'NB_6_frameA.png',1489.8340442173703,44695.021326521106,44695,1489.8333333333333
116,1489.8486705,44695.460115,44695,1489.8333333333333,1490.3319575,44709.958725000004,44709,1490.3,1491.86568775,44755.9706325,44755,1491.8333333333333,0.9508732332142245,3,1,7,1,1,3,b'HB_4_frameB.png',1492.8165609832142,44784.49682949643,44784,1492.8
117,1492.8233515,44784.700545,44784,1492.8,1493.27334225,44798.200267500004,44798,1493.2666666666667,1494.80678475,44844.2035425,44844,1494.8,0.10538440355594503,2,1,2,2,2,3,b'SB_8_frameA.png',1494.9121691535559,44847.36507460668,44847,1494.9
118,1494.91968475,44847.5905425,44847,1494.9,1495.403022,44862.09066,44862,1495.4,1496.93666175,44908.0998525,44908,1496.9333333333334,2.001494132402513,2,0,2,2,1,3,b'SB_2_frameB_foil.png',1498.9381558824025,44968.144676472075,44968,1498.9333333333334
119,1498.94873025,44968.4619075,44968,1498.9333333333334,1499.481897,44984.45690999999,44984,1499.4666666666667,1501.01556225,45030.4668675,45030,1501.0,2.1984698085034324,3,0,6,1,2,2,b'HB_2_frameA_foil.png',1503.2140320585033,45096.4209617551,45096,1503.2
120,1503.21664025,45096.4992075,45096,1503.2,1503.6833024999999,45110.49907499999,45110,1503.6666666666667,1505.2166869999999,45156.500609999996,45156,1505.2,1.5466508834033448,2,0,6,1,2,2,b'SB_6_frameB_foil.png',1506.7633378834032,45202.900136502096,45202,1506.7333333333333
121,1506.7800184999999,45203.40055499999,45203,1506.7666666666667,1507.3132867499999,45219.3986025,45219,1507.3,1508.84698325,45265.4094975,45265,1508.8333333333333,1.1373649961842602,2,0,6,1,2,2,b'SB_2_frameB_foil.png',1509.9843482461843,45299.53044738553,45299,1509.9666666666667
122,1509.9946679999998,45299.840039999995,45299,1509.9666666666667,1510.46131075,45313.839322499996,45313,1510.4333333333334,1511.99491825,45359.8475475,45359,1511.9666666666667,2.203752498850008,2,0,4,2,1,1,b'SB_2_frameA_foil.png',1514.19867074885,45425.9601224655,45425,1514.1666666666667
123,1514.2101989999999,45426.305969999994,45426,1514.2,1514.7266977499999,45441.800932499995,45441,1514.7,1516.26024525,45487.8073575,45487,1516.2333333333333,2.2163112228554382,2,0,3,2,1,2,b'SB_2_frameB_foil.png',1518.4765564728555,45554.296694185665,45554,1518.4666666666667
124,1518.479052,45554.37156,45554,1518.4666666666667,1518.9789799999999,45569.369399999996,45569,1518.9666666666667,1520.51239775,45615.3719325,45615,1520.5,0.7312580472589616,2,1,7,1,1,3,b'SB_6_frameA.png',1521.243655797259,45637.30967391777,45637,1521.2333333333333
125,1521.2600694999999,45637.802084999996,45637,1521.2333333333333,1521.72669,45651.8007,45651,1521.7,1523.260265,45697.807949999995,45697,1523.2333333333333,1.6451495350720506,1,1,3,2,2,2,b'NB_29_frameB.png',1524.905414535072,45747.16243605216,45747,1524.9
126,1524.908582,45747.25746,45747,1524.9,1525.425276,45762.758279999995,45762,1525.4,1526.95881575,45808.7644725,45808,1526.9333333333334,0.23701041975436965,1,0,5,1,2,1,b'NB_24_frameB_foil.png',1527.1958261697544,45815.87478509263,45815,1527.1666666666667
127,1527.20719625,45816.215887499995,45816,1527.2,1527.6571299999998,45829.713899999995,45829,1527.6333333333334,1529.1906004999998,45875.718015,45875,1529.1666666666667,2.883210311187213,3,0,3,2,1,2,b'HB_9_frameB_foil.png',1532.073810811187,45962.21432433561,45962,1532.0666666666666
128,1532.0824229999998,45962.472689999995,45962,1532.0666666666666,1532.599041,45977.971229999996,45977,1532.5666666666666,1534.13271575,46023.9814725,46023,1534.1,1.2224417069337505,1,0,5,1,2,1,b'NB_2_frameB_foil.png',1535.3551574569337,46060.65472370801,46060,1535.3333333333333
129,1535.3616204999998,46060.848614999995,46060,1535.3333333333333,1535.8949235,46076.847705,46076,1535.8666666666666,1537.4284655,46122.853964999995,46122,1537.4,2.130528074907488,1,0,6,1,2,2,b'NB_10_frameB_foil.png',1539.5589935749074,46186.76980724722,46186,1539.5333333333333
130,1539.56345825,46186.9037475,46186,1539.5333333333333,1540.03004775,46200.9014325,46200,1540.0,1541.563655,46246.90965,46246,1541.5333333333333,2.074151746732241,1,1,2,2,2,3,b'NB_4_frameA.png',1543.6378067467322,46309.13420240197,46309,1543.6333333333334
131,1543.64107975,46309.2323925,46309,1543.6333333333334,1544.140977,46324.22931,46324,1544.1333333333334,1545.67469975,46370.240992499996,46370,1545.6666666666667,0.41535516582735,3,0,7,1,2,3,b'HB_1_frameA_foil.png',1546.0900549158273,46382.701647474816,46382,1546.0666666666666
132,1546.09396075,46382.8188225,46382,1546.0666666666666,1546.5939879999999,46397.819639999994,46397,1546.5666666666666,1548.1274345,46443.823035,46443,1548.1,0.6394682194058987,1,0,6,1,2,2,b'NB_20_frameB_foil.png',1548.7669027194058,46463.007081582175,46463,1548.7666666666667
133,1548.770892,46463.12676,46463,1548.7666666666667,1549.270761,46478.12283,46478,1549.2666666666667,1550.8043767499998,46524.1313025,46524,1550.8,0.4704800441086263,3,0,3,2,1,2,b'HB_2_frameB_foil.png',1551.2748567941085,46538.24570382325,46538,1551.2666666666667
134,1551.28299675,46538.4899025,46538,1551.2666666666667,1551.78292275,46553.487682499996,46553,1551.7666666666667,1553.3166305,46599.498915,46599,1553.3,1.5302574652341718,1,0,7,1,2,3,b'NB_25_frameA_foil.png',1554.8468879652341,46645.40663895702,46645,1554.8333333333333
135,1554.8649967499998,46645.9499025,46645,1554.8333333333333,1555.41496425,46662.448927499994,46662,1555.4,1556.948656,46708.45968,46708,1556.9333333333334,0.35144794264670054,1,0,7,1,2,3,b'NB_1_frameA_foil.png',1557.3001039426467,46719.003118279405,46719,1557.3
136,1557.30955325,46719.286597499995,46719,1557.3,1557.8426835,46735.280505,46735,1557.8333333333333,1559.37619325,46781.2857975,46781,1559.3666666666666,1.247060613888607,3,0,7,1,2,3,b'HB_1_frameA_foil.png',1560.6232538638885,46818.69761591666,46818,1560.6
137,1560.6361117499998,46819.0833525,46819,1560.6333333333334,1561.1193994999999,46833.581985,46833,1561.1,1562.65292125,46879.5876375,46879,1562.6333333333334,1.2492336210925714,1,1,5,1,1,1,b'NB_19_frameB.png',1563.9021548710925,46917.06464613278,46917,1563.9
138,1563.913738,46917.41214,46917,1563.9,1564.3969605,46931.908815,46931,1564.3666666666666,1565.9306374999999,46977.91912499999,46977,1565.9,2.2474308288838074,1,1,3,2,2,2,b'NB_20_frameA.png',1568.1780683288837,47045.34204986651,47045,1568.1666666666667
139,1568.1919497499998,47045.7584925,47045,1568.1666666666667,1568.7252354999998,47061.757065,47061,1568.7,1570.25870925,47107.7612775,47107,1570.2333333333333,1.111183233675547,2,0,5,1,2,1,b'SB_1_frameA_foil.png',1571.3698924836756,47141.09677451027,47141,1571.3666666666666
140,1571.37676425,47141.3029275,47141,1571.3666666666666,1571.9100267499998,47157.300802499994,47157,1571.9,1573.4436105,47203.308315,47203,1573.4333333333334,-0.2292591890272888,3,0,3,2,1,2,b'HB_1_frameA_foil.png',1573.2143513109727,47196.43053932918,47196,1573.2
141,1573.21940225,47196.5820675,47196,1573.2,1573.7525595,47212.576785,47212,1573.7333333333333,1575.2861067499998,47258.5832025,47258,1575.2666666666667,0.5565722592782549,2,1,4,2,2,1,b'SB_7_frameB.png',1575.842679009278,47275.28037027834,47275,1575.8333333333333
142,1575.8446245,47275.338735,47275,1575.8333333333333,1576.311289,47289.33867,47289,1576.3,1577.84466925,47335.3400775,47335,1577.8333333333333,0.9596382828931382,3,1,6,1,1,2,b'HB_2_frameA.png',1578.804307532893,47364.12922598679,47364,1578.8
143,1578.8150644999998,47364.451935,47364,1578.8,1579.36499325,47380.9497975,47380,1579.3333333333333,1580.898606,47426.95818,47426,1580.8666666666666,-0.3174298119447485,3,1,2,2,2,3,b'HB_6_frameA.png',1580.5811761880552,47417.43528564166,47417,1580.5666666666666
144,1580.59188,47417.7564,47417,1580.5666666666666,1581.04167425,47431.2502275,47431,1581.0333333333333,1582.5754355,47477.263065,47477,1582.5666666666666,0.6868692708594608,3,0,6,1,2,2,b'HB_5_frameB_foil.png',1583.2623047708594,47497.86914312578,47497,1583.2333333333333
145,1583.27183675,47498.1551025,47498,1583.2666666666667,1583.80510575,47514.153172499995,47514,1583.8,1585.33882075,47560.1646225,47560,1585.3333333333333,-0.08395994097918447,1,0,2,2,1,3,b'NB_28_frameB_foil.png',1585.2548608090208,47557.64582427062,47557,1585.2333333333333
146,1585.26240775,47557.8722325,47557,1585.2333333333333,1585.7454794999999,47572.36438499999,47572,1585.7333333333333,1587.29583125,47618.8749375,47618,1587.2666666666667,1.7908809573200415,2,0,7,1,2,3,b'SB_5_frameB_foil.png',1589.08671220732,47672.6013662196,47672,1589.0666666666666
147,1589.0920145,47672.760435000004,47672,1589.0666666666666,1589.6085712499998,47688.2571375,47688,1589.6,1591.142257,47734.26771,47734,1591.1333333333334,0.40335149762358924,3,1,2,2,2,3,b'HB_1_frameB.png',1591.5456084976236,47746.368254928704,47746,1591.5333333333333
148,1591.5593605,47746.780815,47746,1591.5333333333333,1592.109342,47763.28026,47763,1592.1,1593.6429832499998,47809.289497499994,47809,1593.6333333333334,2.5982331247814727,1,1,4,2,2,1,b'NB_28_frameA.png',1596.2412163747813,47887.23649124344,47887,1596.2333333333333
149,1596.2568132499998,47887.7043975,47887,1596.2333333333333,1596.7234047499999,47901.7021425,47901,1596.7,1598.2571377499999,47947.7141325,47947,1598.2333333333333,1.1232123208155826,2,0,7,1,2,3,b'SB_1_frameA_foil.png',1599.3803500708154,47981.41050212446,47981,1599.3666666666666
150,1599.38682,47981.6046,47981,1599.3666666666666,1599.9033415,47997.100244999994,47997,1599.9,1601.4368009999998,48043.104029999995,48043,1601.4333333333334,1.4644509719946655,2,0,4,2,1,1,b'SB_5_frameA_foil.png',1602.9012519719945,48087.037559159835,48087,1602.9
151,1602.9126135,48087.378404999996,48087,1602.9,1603.395926,48101.877779999995,48101,1603.3666666666666,1604.9295049999998,48147.885149999995,48147,1604.9,1.8424582041861868,1,0,4,2,1,1,b'NB_13_frameA_foil.png',1606.771963204186,48203.158896125584,48203,1606.7666666666667
152,1606.7765674999998,48203.29702499999,48203,1606.7666666666667,1607.293199,48218.79597,48218,1607.2666666666667,1608.82676,48264.8028,48264,1608.8,1.5851619973527704,3,0,7,1,2,3,b'HB_6_frameB_foil.png',1610.4119219973527,48312.357659920584,48312,1610.4
153,1610.42629975,48312.7889925,48312,1610.4,1610.97613125,48329.2839375,48329,1610.9666666666667,1612.509717,48375.291509999995,48375,1612.5,1.0993789392287,3,0,2,2,1,3,b'HB_5_frameA_foil.png',1613.6090959392286,48408.27287817686,48408,1613.6
154,1613.6242614999999,48408.727844999994,48408,1613.6,1614.12419775,48423.7259325,48423,1614.1,1615.6578005,48469.734014999995,48469,1615.6333333333334,0.31489940535175265,1,0,3,2,1,2,b'NB_19_frameA_foil.png',1615.9726999053516,48479.18099716055,48479,1615.9666666666667
155,1615.97592075,48479.2776225,48479,1615.9666666666667,1616.4593854999998,48493.781565,48493,1616.4333333333334,1617.9927785,48539.783355,48539,1617.9666666666667,1.6441629326927796,3,1,2,2,2,3,b'HB_7_frameB.png',1619.6369414326928,48589.10824298079,48589,1619.6333333333334
156,1619.648359,48589.45077,48589,1619.6333333333334,1620.1982397499999,48605.947192499996,48605,1620.1666666666667,1621.73197425,48651.959227499996,48651,1621.7,1.982697330578958,3,0,7,1,2,3,b'HB_2_frameB_foil.png',1623.7146715805789,48711.440147417365,48711,1623.7
157,1623.7290962499999,48711.872887499994,48711,1623.7,1624.27899,48728.3697,48728,1624.2666666666667,1625.8125157499999,48774.375472499996,48774,1625.8,1.0263057795618806,2,1,7,1,1,3,b'SB_7_frameA.png',1626.8388215295618,48805.16464588685,48805,1626.8333333333333
158,1626.8528569999999,48805.58571,48805,1626.8333333333333,1627.3860977499999,48821.582932499994,48821,1627.3666666666666,1628.91970975,48867.5912925,48867,1628.9,1.7817933409351099,2,0,7,1,2,3,b'SB_7_frameB_foil.png',1630.7015030909351,48921.045092728054,48921,1630.7
159,1630.7171405,48921.514214999996,48921,1630.7,1631.2171445,48936.514335,48936,1631.2,1632.75069975,48982.5209925,48982,1632.7333333333333,2.6258107238882076,1,0,2,2,1,3,b'NB_4_frameB_foil.png',1635.3765104738882,49061.295314216644,49061,1635.3666666666666
160,1635.3819895,49061.459684999994,49061,1635.3666666666666,1635.9152594999998,49077.45778499999,49077,1635.9,1637.4486685,49123.460054999996,49123,1637.4333333333334,0.0,3,0,1,0,1,0,b'HB_6_frameB_foil.png',1637.4486685,49123.460054999996,49123,1637.4333333333334
161,1639.54180525,49186.2541575,49186,1639.5333333333333,1640.0417654999999,49201.252965,49201,1640.0333333333333,1641.57532975,49247.2598925,49247,1641.5666666666666,0.5021483428590727,3,0,7,1,2,3,b'HB_1_frameB_foil.png',1642.077478092859,49262.324342785774,49262,1642.0666666666666
162,1642.0865577499999,49262.596732499995,49262,1642.0666666666666,1642.5864159999999,49277.59248,49277,1642.5666666666666,1644.11991825,49323.5975475,49323,1644.1,1.7853082175824966,1,0,2,2,1,3,b'NB_15_frameA_foil.png',1645.9052264675825,49377.156794027476,49377,1645.9
163,1645.9163245,49377.489734999996,49377,1645.9,1646.46635275,49393.990582499995,49393,1646.4333333333334,1647.99998525,49439.9995575,49439,1647.9666666666667,1.4068348215459991,2,1,5,1,1,1,b'SB_8_frameB.png',1649.406820071546,49482.20460214638,49482,1649.4
164,1649.4107155,49482.321465,49482,1649.4,1649.8939595,49496.818784999996,49496,1649.8666666666666,1651.4276539999998,49542.82962,49542,1651.4,1.9731356102638529,1,0,5,1,2,1,b'NB_23_frameA_foil.png',1653.4007896102637,49602.02368830791,49602,1653.4
165,1653.40521025,49602.1563075,49602,1653.4,1653.88848925,49616.6546775,49616,1653.8666666666666,1655.42199975,49662.6599925,49662,1655.4,2.26588196171906,3,0,3,2,1,2,b'HB_3_frameB_foil.png',1657.687881711719,49730.63645135157,49730,1657.6666666666667
166,1657.6933569999999,49730.800709999996,49730,1657.6666666666667,1658.20994625,49746.2983875,49746,1658.2,1659.74349625,49792.304887499995,49792,1659.7333333333333,1.210465781721723,3,0,6,1,2,2,b'HB_3_frameB_foil.png',1660.9539620317216,49828.61886095165,49828,1660.9333333333334
167,1660.9672675,49829.018025,49829,1660.9666666666667,1661.517073,49845.51219,49845,1661.5,1663.05085775,49891.5257325,49891,1663.0333333333333,2.359542134576259,3,0,3,2,1,2,b'HB_1_frameB_foil.png',1665.4103998845762,49962.31199653729,49962,1665.4
168,1665.41985925,49962.5957775,49962,1665.4,1665.93647575,49978.0942725,49978,1665.9333333333334,1667.4699719999999,50024.09916,50024,1667.4666666666667,1.4807733464967896,2,1,6,1,1,2,b'SB_1_frameB.png',1668.9507453464967,50068.5223603949,50068,1668.9333333333334
169,1668.9604064999999,50068.812195,50068,1668.9333333333334,1669.4103929999999,50082.31179,50082,1669.4,1670.9439002499998,50128.317007499994,50128,1670.9333333333334,1.5278188774882437,1,1,7,1,1,3,b'NB_11_frameB.png',1672.471719127488,50174.151573824645,50174,1672.4666666666667
170,1672.4753852499998,50174.261557499995,50174,1672.4666666666667,1673.02540275,50190.7620825,50190,1673.0,1674.5587899999998,50236.763699999996,50236,1674.5333333333333,1.997387611771046,2,0,3,2,1,2,b'SB_2_frameA_foil.png',1676.5561776117709,50296.68532835312,50296,1676.5333333333333
171,1676.6031114999998,50298.093344999994,50298,1676.6,1677.0696492499999,50312.0894775,50312,1677.0666666666666,1678.6031655,50358.094965,50358,1678.6,1.2691627560616325,1,0,6,1,2,2,b'NB_3_frameA_foil.png',1679.8723282560616,50396.16984768185,50396,1679.8666666666666
172,1679.886724,50396.60172,50396,1679.8666666666666,1680.4200792499998,50412.60237749999,50412,1680.4,1681.953791,50458.61373,50458,1681.9333333333334,1.1852911770620267,2,1,6,1,1,2,b'SB_2_frameB.png',1683.139082177062,50494.17246531186,50494,1683.1333333333334
173,1683.1519624999999,50494.558874999995,50494,1683.1333333333334,1683.6851305,50510.553915,50510,1683.6666666666667,1685.21875375,50556.5626125,50556,1685.2,0.03335287998561398,2,0,4,2,1,1,b'SB_8_frameB_foil.png',1685.2521066299855,50557.56319889957,50557,1685.2333333333333
174,1685.2565117499998,50557.6953525,50557,1685.2333333333333,1685.8064264999998,50574.192794999995,50574,1685.8,1687.3400662499998,50620.2019875,50620,1687.3333333333333,2.16763868794078,1,0,7,1,2,3,b'NB_29_frameA_foil.png',1689.5077049379406,50685.23114813822,50685,1689.5
175,1689.52397625,50685.719287500004,50685,1689.5,1689.990402,50699.71206,50699,1689.9666666666667,1691.523989,50745.71967,50745,1691.5,0.4491207353948994,1,0,7,1,2,3,b'NB_30_frameB_foil.png',1691.973109735395,50759.19329206185,50759,1691.9666666666667
176,1691.9906879999999,50759.72064,50759,1691.9666666666667,1692.4573377499999,50773.7201325,50773,1692.4333333333334,1693.9909295,50819.727885,50819,1693.9666666666667,0.032093039892060915,1,0,4,2,1,1,b'NB_22_frameB_foil.png',1694.023022539892,50820.69067619676,50820,1694.0
177,1694.0821637499998,50822.46491249999,50822,1694.0666666666666,1694.697403,50840.92209,50840,1694.6666666666667,1696.27163625,50888.1490875,50888,1696.2666666666667,1.781962533672413,2,1,7,1,1,3,b'SB_30_frameA.png',1698.0535987836724,50941.60796351017,50941,1698.0333333333333
178,1698.1097945,50943.293835,50943,1698.1,1698.6912667499998,50960.738002499995,50960,1698.6666666666667,1700.2374105,51007.122315,51007,1700.2333333333333,1.5294275085070694,2,0,4,2,1,1,b'SB_30_frameB_foil.png',1701.766838008507,51053.005140255205,51053,1701.7666666666667
179,1701.83141775,51054.9425325,51054,1701.8,1702.327622,51069.82866,51069,1702.3,1703.8892744999998,51116.67823499999,51116,1703.8666666666666,2.198499342015566,3,1,6,1,1,2,b'HB_30_frameB.png',1706.0877738420154,51182.63321526046,51182,1706.0666666666666
180,1706.1176867499998,51183.530602499995,51183,1706.1,1706.6636664999999,51199.909994999995,51199,1706.6333333333334,1708.22268175,51246.6804525,51246,1708.2,1.047385051178935,3,0,7,1,2,3,b'HB_30_frameA_foil.png',1709.270066801179,51278.10200403537,51278,1709.2666666666667
