trial_num,fixcross_time,fixation_HZ,fixation_bin,fixation_regarded,start_time,Fstart_HZ,Fstart_bin,Fstart_regarded,stop_time,Fstop_HZ,Fstop_bin,Fstop_regarded,RT,boundary_type,key,resp_value,leftright,accuracy,confidence,frameName,response_time,response_HZ,response_bin,response_regarded
1,1932.974106,57989.22317999999,57989,1932.9666666666667,1933.54066675,58006.2200025,58006,1933.5333333333333,1935.5754785,58067.264355,58067,1935.5666666666666,1.7817440449725837,3,2,7,2,2.0,3.0,b'HB_14_ShortA.png',1937.3572225449725,58120.71667634918,58120,1937.3333333333333
2,1937.3721775,58121.165324999994,58121,1937.3666666666666,1937.9720552499998,58139.16165749999,58139,1937.9666666666667,1940.0060804999998,58200.182414999996,58200,1940.0,1.7820820962951984,3,2,7,2,2.0,3.0,b'HB_45_ShortA.png',1941.788162596295,58253.64487788885,58253,1941.7666666666667
3,1941.9208247499998,58257.6247425,58257,1941.9,1942.53737375,58276.121212499995,58276,1942.5333333333333,1944.5894462499998,58337.683387499994,58337,1944.5666666666666,1.6828268109966302,1,2,7,2,2.0,3.0,b'NB_26_ShortA.png',1946.2722730609964,58388.16819182989,58388,1946.2666666666667
4,1946.32529475,58389.7588425,58389,1946.3,1946.95849675,58408.7549025,58408,1946.9333333333334,1948.99202275,58469.7606825,58469,1948.9666666666667,1.6831186663621338,1,1,2,1,2.0,3.0,b'NB_25_LongA.png',1950.675141416362,58520.25424249086,58520,1950.6666666666667
5,1950.8251612499998,58524.7548375,58524,1950.8,1951.5416922499999,58546.250767499994,58546,1951.5333333333333,1953.576879,58607.30637,58607,1953.5666666666666,1.6817010433151154,1,2,6,2,2.0,2.0,b'NB_3_LongA.png',1955.258580043315,58657.75740129945,58657,1955.2333333333333
6,1955.38112725,58661.4338175,58661,1955.3666666666666,1955.96433375,58678.9300125,58678,1955.9333333333334,1957.9982734999999,58739.94820499999,58739,1957.9666666666667,1.6812888213753467,1,1,2,1,2.0,3.0,b'NB_16_ShortA.png',1959.6795623213752,58790.386869641254,58790,1959.6666666666667
7,1959.755305,58792.65915,58792,1959.7333333333333,1960.30518975,58809.1556925,58809,1960.3,1962.33930225,58870.1790675,58870,1962.3333333333333,1.1066239442152437,2,2,6,2,2.0,2.0,b'SB_34_LongA.png',1963.4459261942152,58903.37778582646,58903,1963.4333333333334
8,1963.5253,58905.759,58905,1963.5,1964.07518775,58922.2556325,58922,1964.0666666666666,1966.1088215,58983.264645,58983,1966.1,1.6828161822486436,1,2,7,2,2.0,3.0,b'NB_19_ShortA.png',1967.7916376822486,59033.74913046746,59033,1967.7666666666667
9,1967.85667475,59035.700242499996,59035,1967.8333333333333,1968.4898772499998,59054.6963175,59054,1968.4666666666667,1970.5243595,59115.730785,59115,1970.5,1.783379493674147,3,2,6,2,2.0,2.0,b'HB_39_LongA.png',1972.307738993674,59169.232169810224,59169,1972.3
10,1972.32206675,59169.6620025,59169,1972.3,1972.871958,59186.15874,59186,1972.8666666666666,1974.9062185,59247.186555,59247,1974.9,1.1510997912409948,2,2,7,2,2.0,3.0,b'SB_40_LongA.png',1976.057318291241,59281.71954873723,59281,1976.0333333333333
11,1976.0716632499998,59282.14989749999,59282,1976.0666666666666,1976.57157225,59297.1471675,59297,1976.5666666666666,1978.6061512499998,59358.1845375,59358,1978.6,1.7822963345388416,3,2,7,2,2.0,3.0,b'HB_24_ShortA.png',1980.3884475845387,59411.65342753616,59411,1980.3666666666666
12,1980.4568172499999,59413.704517499995,59413,1980.4333333333334,1981.04003975,59431.2011925,59431,1981.0333333333333,1983.0736762499998,59492.2102875,59492,1983.0666666666666,1.6836586024437565,1,2,7,2,2.0,3.0,b'NB_7_LongA.png',1984.7573348524436,59542.72004557331,59542,1984.7333333333333
13,1984.8903524999998,59546.710575,59546,1984.8666666666666,1985.39020225,59561.706067499996,59561,1985.3666666666666,1987.4237552499999,59622.7126575,59622,1987.4,0.9188100441097049,2,1,2,1,2.0,3.0,b'SB_47_ShortA.png',1988.3425652941096,59650.27695882329,59650,1988.3333333333333
14,1988.3743244999998,59651.22973499999,59651,1988.3666666666666,1988.8742157499998,59666.2264725,59666,1988.8666666666666,1990.90789725,59727.2369175,59727,1990.9,1.6818381471530301,1,1,3,1,2.0,2.0,b'NB_11_ShortA.png',1992.589735397153,59777.69206191459,59777,1992.5666666666666
15,1992.606916,59778.20748,59778,1992.6,1993.1568137499999,59794.704412499996,59794,1993.1333333333334,1995.1915119999999,59855.74535999999,59855,1995.1666666666667,1.7811971482005902,3,2,7,2,2.0,3.0,b'HB_40_LongA.png',1996.9727091482005,59909.18127444601,59909,1996.9666666666667
16,1997.0871587499998,59912.614762499994,59912,1997.0666666666666,1997.6703679999998,59930.111039999996,59930,1997.6666666666667,1999.70455875,59991.1367625,59991,1999.7,1.6814397795969853,1,1,2,1,2.0,3.0,b'NB_16_LongA.png',2001.385998529597,60041.57995588791,60041,2001.3666666666666
17,2001.47123575,60044.1370725,60044,2001.4666666666667,2002.0544539999999,60061.63361999999,60061,2002.0333333333333,2004.0892605,60122.677814999995,60122,2004.0666666666666,0.6857136666658334,2,1,2,1,2.0,3.0,b'SB_7_ShortA.png',2004.7749741666657,60143.24922499997,60143,2004.7666666666667
18,2004.82909725,60144.8729175,60144,2004.8,2005.4289817499998,60162.869452499996,60162,2005.4,2007.46328325,60223.8984975,60223,2007.4333333333334,1.6822462063719286,1,2,6,2,2.0,2.0,b'NB_4_ShortA.png',2009.1455294563718,60274.365883691156,60274,2009.1333333333334
19,2009.2924962499999,60278.774887499996,60278,2009.2666666666667,2009.9090374999998,60297.27112499999,60297,2009.9,2011.9431445,60358.294335,60358,2011.9333333333334,1.7840778392273933,3,1,3,1,2.0,2.0,b'HB_22_LongA.png',2013.7272223392274,60411.81667017682,60411,2013.7
20,2013.7426919999998,60412.280759999994,60412,2013.7333333333333,2014.275907,60428.27721,60428,2014.2666666666667,2016.310252,60489.30756,60489,2016.3,1.6813050551863853,1,1,2,1,2.0,3.0,b'NB_15_ShortA.png',2017.9915570551864,60539.74671165559,60539,2017.9666666666667
21,2018.0061205,60540.183615,60540,2018.0,2018.58933925,60557.6801775,60557,2018.5666666666666,2020.6239375,60618.718125,60618,2020.6,1.5218000513123116,2,1,3,1,2.0,2.0,b'SB_36_ShortA.png',2022.1457375513123,60664.37212653937,60664,2022.1333333333334
22,2022.2252107499999,60666.7563225,60666,2022.2,2022.7917555,60683.752665,60683,2022.7666666666667,2024.82529925,60744.7589775,60744,2024.8,1.8176815870247083,2,1,2,1,2.0,3.0,b'SB_12_ShortA.png',2026.6429808370247,60799.28942511074,60799,2026.6333333333334
23,2026.72726825,60801.8180475,60801,2026.7,2027.310479,60819.31437,60819,2027.3,2029.3441987499998,60880.32596249999,60880,2029.3333333333333,1.781351067169453,3,2,7,2,2.0,3.0,b'HB_20_ShortA.png',2031.1255498171693,60933.766494515075,60933,2031.1
24,2031.1407359999998,60934.22207999999,60934,2031.1333333333334,2031.757292,60952.71876,60952,2031.7333333333333,2033.7923635,61013.770905,61013,2033.7666666666667,1.4058608570194338,2,2,7,2,2.0,3.0,b'SB_53_ShortA.png',2035.1982243570194,61055.94673071058,61055,2035.1666666666667
25,2035.2631072499998,61057.89321749999,61057,2035.2333333333333,2035.7796675,61073.390025,61073,2035.7666666666667,2037.81390275,61134.4170825,61134,2037.8,1.7815253599255811,3,1,2,1,2.0,3.0,b'HB_1_LongA.png',2039.5954281099255,61187.862843297764,61187,2039.5666666666666
26,2039.6099857499999,61188.29957249999,61188,2039.6,2040.1265382499998,61203.7961475,61203,2040.1,2042.1608877499998,61264.82663249999,61264,2042.1333333333334,1.7825364087620983,3,1,2,1,2.0,3.0,b'HB_46_ShortA.png',2043.943424158762,61318.302724762856,61318,2043.9333333333334
27,2044.001079,61320.03236999999,61320,2044.0,2044.600966,61338.02898,61338,2044.6,2046.635227,61399.05681,61399,2046.6333333333334,1.0515477372100577,2,2,6,2,2.0,2.0,b'SB_58_ShortA.png',2047.68677473721,61430.6032421163,61430,2047.6666666666667
28,2047.7452477499999,61432.35743249999,61432,2047.7333333333333,2048.2618115,61447.854345,61447,2048.233333333333,2050.29519825,61508.85594749999,61508,2050.266666666667,1.7806773147458443,3,1,3,1,2.0,2.0,b'HB_27_LongA.png',2052.0758755647457,61562.27626694237,61562,2052.0666666666666
29,2052.1268585,61563.805754999994,61563,2052.1,2052.676743,61580.30229,61580,2052.6666666666665,2054.711213,61641.336390000004,61641,2054.7,0.8394274338788819,2,1,2,1,2.0,3.0,b'SB_59_LongA.png',2055.550640433879,61666.51921301637,61666,2055.5333333333333
30,2055.636085,61669.08255000001,61669,2055.633333333333,2056.1693099999998,61685.07929999999,61685,2056.1666666666665,2058.20337925,61746.1013775,61746,2058.2,1.6814259536040481,1,1,2,1,2.0,3.0,b'NB_24_ShortA.png',2059.884805203604,61796.544156108124,61796,2059.866666666667
31,2059.8994427499997,61796.98328249999,61796,2059.866666666667,2060.46600375,61813.980112499994,61813,2060.4333333333334,2062.49977975,61874.9933925,61874,2062.4666666666667,1.7821358045766829,3,1,2,1,2.0,3.0,b'HB_50_LongA.png',2064.2819155545767,61928.4574666373,61928,2064.266666666667
32,2064.2969197499997,61928.90759249999,61928,2064.266666666667,2064.84680575,61945.4041725,61945,2064.8333333333335,2066.881468,62006.44404,62006,2066.866666666667,1.7819617263739929,3,1,3,1,2.0,2.0,b'HB_26_ShortA.png',2068.663429726374,62059.90289179122,62059,2068.633333333333
33,2068.81803425,62064.5410275,62064,2068.8,2069.35125325,62080.5375975,62080,2069.3333333333335,2071.3857454999998,62141.57236499999,62141,2071.366666666667,1.6824993939953856,1,1,3,1,2.0,2.0,b'NB_14_LongA.png',2073.068244893995,62192.047346819854,62192,2073.0666666666666
34,2073.1237855,62193.713565,62193,2073.1,2073.65700925,62209.7102775,62209,2073.633333333333,2075.69099,62270.7297,62270,2075.6666666666665,1.783996295169345,3,1,3,1,2.0,2.0,b'HB_10_ShortA.png',2077.4749862951694,62324.249588855084,62324,2077.4666666666667
35,2077.52754325,62325.826297499996,62325,2077.5,2078.0107737499998,62340.32321249999,62340,2078.0,2080.0455615,62401.366845000004,62401,2080.0333333333333,0.9125784369098255,2,1,2,1,2.0,3.0,b'SB_18_LongA.png',2080.95813993691,62428.7441981073,62428,2080.9333333333334
36,2080.97199575,62429.15987250001,62429,2080.9666666666667,2081.5885384999997,62447.65615499999,62447,2081.5666666666666,2083.6231435,62508.694305,62508,2083.6,1.6818380876793526,1,2,7,2,2.0,3.0,b'NB_28_LongA.png',2085.3049815876793,62559.14944763038,62559,2085.3
37,2085.3685097499997,62561.055292499994,62561,2085.366666666667,2086.0017184999997,62580.05155499999,62580,2086.0,2088.0352045,62641.056135,62641,2088.0333333333333,2.1087581355532166,2,1,3,1,2.0,2.0,b'SB_27_LongA.png',2090.143962635553,62704.318879066595,62704,2090.133333333333
38,2090.26930525,62708.0791575,62708,2090.266666666667,2090.90250325,62727.0750975,62727,2090.9,2092.936335,62788.09005,62788,2092.9333333333334,1.3799377484974684,2,1,3,1,2.0,2.0,b'SB_52_LongA.png',2094.3162727484973,62829.48818245492,62829,2094.3
39,2094.4030875,62832.092625,62832,2094.4,2094.96964325,62849.0892975,62849,2094.9666666666667,2097.0033515,62910.100545,62910,2097.0,1.7832113483309513,3,2,7,2,2.0,3.0,b'HB_30_LongA.png',2098.786562848331,62963.59688544993,62963,2098.766666666667
40,2098.801658,62964.049739999995,62964,2098.8,2099.2848795,62978.546385,62978,2099.266666666667,2101.31906425,63039.571927499994,63039,2101.3,1.7823829786648275,3,1,2,1,2.0,3.0,b'HB_29_LongA.png',2103.1014472286647,63093.04341685994,63093,2103.1
41,2103.11607875,63093.48236249999,63093,2103.1,2103.6826404999997,63110.47921499999,63110,2103.6666666666665,2105.71753125,63171.525937499995,63171,2105.7,1.7809479359275429,3,2,7,2,2.0,3.0,b'HB_60_ShortA.png',2107.4984791859274,63224.95437557782,63224,2107.4666666666667
42,2107.61862975,63228.5588925,63228,2107.6,2108.21852025,63246.5556075,63246,2108.2,2110.2519482499997,63307.55844749999,63307,2110.233333333333,0.8674878779129358,2,2,7,2,2.0,3.0,b'SB_17_LongA.png',2111.1194361279126,63333.58308383738,63333,2111.1
43,2111.21469475,63336.4408425,63336,2111.2,2111.79790275,63353.9370825,63353,2111.766666666667,2113.8314885,63414.944655,63414,2113.8,1.7825038576993393,3,2,3,1,1.0,2.0,b'HB_35_LongA.png',2115.6139923576993,63468.41977073098,63468,2115.6
44,2115.6772714999997,63470.31814499999,63470,2115.6666666666665,2116.26048125,63487.8144375,63487,2116.233333333333,2118.294262,63548.82786,63548,2118.266666666667,1.7816548836417496,3,2,2,1,1.0,3.0,b'HB_41_LongA.png',2120.0759168836416,63602.27750650925,63602,2120.0666666666666
45,2120.090656,63602.719679999995,63602,2120.0666666666666,2120.5738929999998,63617.21678999999,63617,2120.5666666666666,2122.60777875,63678.233362499996,63678,2122.6,1.781490692475927,3,1,3,1,2.0,2.0,b'HB_52_ShortA.png',2124.389269442476,63731.67808327427,63731,2124.366666666667
46,2124.40399625,63732.119887500005,63732,2124.4,2124.970553,63749.116590000005,63749,2124.9666666666667,2127.00472,63810.141599999995,63810,2127.0,1.682389128851355,1,2,7,2,2.0,3.0,b'NB_5_ShortA.png',2128.6871091288513,63860.613273865536,63860,2128.6666666666665
47,2128.85514475,63865.6543425,63865,2128.8333333333335,2129.3717162499997,63881.15148749999,63881,2129.366666666667,2131.40603525,63942.1810575,63942,2131.4,1.7802003755205078,3,1,7,2,1.0,3.0,b'HB_7_LongA.png',2133.1862356255206,63995.58706876561,63995,2133.1666666666665
48,2133.2967264999997,63998.90179499999,63998,2133.266666666667,2133.96325275,64018.897582499994,64018,2133.9333333333334,2135.997289,64079.91867,64079,2135.9666666666667,1.681629156024428,1,1,2,1,2.0,3.0,b'NB_28_ShortA.png',2137.6789181560243,64130.36754468073,64130,2137.6666666666665
49,2137.790308,64133.709240000004,64133,2137.766666666667,2138.456848,64153.70543999999,64153,2138.4333333333334,2140.4915607499997,64214.74682249999,64214,2140.4666666666667,0.850532497453969,2,2,7,2,2.0,3.0,b'SB_15_ShortA.png',2141.3420932474537,64240.26279742361,64240,2141.3333333333335
50,2141.400963,64242.02889,64242,2141.4,2141.884228,64256.52684,64256,2141.866666666667,2143.91804475,64317.54134249999,64317,2143.9,1.6824323890614323,1,1,2,1,2.0,3.0,b'NB_10_ShortA.png',2145.6004771390612,64368.014314171836,64368,2145.6
51,2145.6645545,64369.936635000005,64369,2145.633333333333,2146.1644535,64384.933605,64384,2146.133333333333,2148.19919975,64445.975992499996,64445,2148.1666666666665,1.0130901689553866,2,2,7,2,2.0,3.0,b'SB_13_LongA.png',2149.2122899189553,64476.36869756866,64476,2149.2
52,2149.226141,64476.784230000005,64476,2149.2,2149.826011,64494.78033,64494,2149.8,2151.860945,64555.828349999996,64555,2151.8333333333335,1.7797831817588303,3,2,7,2,2.0,3.0,b'HB_44_LongA.png',2153.6407281817587,64609.22184545276,64609,2153.633333333333
53,2153.7747185,64613.24155499999,64613,2153.766666666667,2154.3412625,64630.237875000006,64630,2154.3333333333335,2156.37627375,64691.2882125,64691,2156.366666666667,1.682253249673522,1,2,6,2,2.0,2.0,b'NB_22_ShortA.png',2158.0585269996736,64741.75580999021,64741,2158.0333333333333
54,2158.1281,64743.84299999999,64743,2158.1,2158.69463025,64760.8389075,64760,2158.6666666666665,2160.72847275,64821.8541825,64821,2160.7,1.7823358960595215,3,1,6,2,1.0,2.0,b'HB_2_ShortA.png',2162.5108086460596,64875.324259381785,64875,2162.5
55,2162.525603,64875.76809,64875,2162.5,2163.058837,64891.76511,64891,2163.0333333333333,2165.093264,64952.797920000005,64952,2165.0666666666666,1.6823824346502079,1,2,6,2,2.0,2.0,b'NB_17_LongA.png',2166.7756464346503,65003.26939303951,65003,2166.766666666667
56,2166.83211125,65004.9633375,65004,2166.8,2167.332011,65019.96033,65019,2167.3,2169.36578675,65080.9736025,65080,2169.3333333333335,1.7824358101497637,3,2,2,1,1.0,3.0,b'HB_9_LongA.png',2171.14822256015,65134.446676804495,65134,2171.133333333333
57,2171.21542475,65136.46274249999,65136,2171.2,2171.76532025,65152.9596075,65152,2171.733333333333,2173.7988259999997,65213.964779999995,65213,2173.766666666667,1.6828665151406312,1,2,7,2,2.0,3.0,b'NB_19_LongA.png',2175.4816925151404,65264.450775454214,65264,2175.4666666666667
58,2175.542971,65266.28913,65266,2175.5333333333333,2176.1095225,65283.285675,65283,2176.1,2178.1442844999997,65344.32853499999,65344,2178.133333333333,1.7816341544385068,3,2,2,1,1.0,3.0,b'HB_25_ShortA.png',2179.925918654438,65397.77755963315,65397,2179.9
59,2179.9403294999997,65398.20988499999,65398,2179.9333333333334,2180.50687325,65415.206197499996,65415,2180.5,2182.5403457499997,65476.21037249999,65476,2182.5333333333333,1.782614439202007,3,2,7,2,2.0,3.0,b'HB_56_ShortA.png',2184.3229601892017,65529.68880567605,65529,2184.3
60,2184.43288325,65532.9864975,65532,2184.4,2185.0660815,65551.982445,65551,2185.0333333333333,2187.0996287499997,65612.98886249999,65612,2187.0666666666666,1.2419395006727427,2,1,2,1,2.0,3.0,b'SB_48_ShortA.png',2188.3415682506725,65650.24704752017,65650,2188.3333333333335
61,2188.45011775,65653.5035325,65653,2188.4333333333334,2189.066665,65671.99995,65671,2189.0333333333333,2191.10034175,65733.0102525,65733,2191.1,1.6826442318997579,1,1,2,1,2.0,3.0,b'NB_27_ShortA.png',2192.7829859819,65783.48957945699,65783,2192.766666666667
62,2192.8487999999998,65785.46399999999,65785,2192.8333333333335,2193.4486859999997,65803.46057999998,65803,2193.4333333333334,2195.48252,65864.4756,65864,2195.4666666666667,2.2174003179825377,2,2,6,2,2.0,2.0,b'SB_10_ShortA.png',2197.6999203179826,65930.99760953948,65930,2197.6666666666665
63,2197.7147225,65931.441675,65931,2197.7,2198.2978955,65948.936865,65948,2198.266666666667,2200.3314315,66009.94294499999,66009,2200.3,1.7823065299598966,3,1,3,1,2.0,2.0,b'HB_43_LongA.png',2202.1137380299597,66063.41214089878,66063,2202.1
64,2202.128973,66063.86919,66063,2202.1,2202.67884875,66080.36546249999,66080,2202.6666666666665,2204.7125512499997,66141.3765375,66141,2204.7,1.7806580955948448,3,1,7,2,1.0,3.0,b'HB_34_LongA.png',2206.4932093455946,66194.79628036784,66194,2206.4666666666667
65,2206.60291125,66198.08733750001,66198,2206.6,2207.286111,66218.58333,66218,2207.266666666667,2209.32063475,66279.6190425,66279,2209.3,1.7808110762562137,3,1,7,2,1.0,3.0,b'HB_18_ShortA.png',2211.101445826256,66333.04337478768,66333,2211.1
66,2211.11545825,66333.46374749999,66333,2211.1,2211.698684,66350.96052,66350,2211.6666666666665,2213.73368175,66412.01045249999,66412,2213.733333333333,1.355075039085932,2,1,3,1,2.0,2.0,b'SB_30_LongA.png',2215.088756789086,66452.66270367257,66452,2215.0666666666666
67,2215.1468415,66454.405245,66454,2215.133333333333,2215.696723,66470.90169,66470,2215.6666666666665,2217.7305685,66531.917055,66531,2217.7,1.7831393720261985,3,1,2,1,2.0,3.0,b'HB_48_ShortA.png',2219.5137078720263,66585.41123616078,66585,2219.5
68,2219.528668,66585.86004,66585,2219.5,2220.0452305,66601.356915,66601,2220.0333333333333,2222.0794625,66662.383875,66662,2222.0666666666666,0.7954787449125433,2,1,3,1,2.0,2.0,b'SB_42_LongA.png',2222.8749412449124,66686.24823734738,66686,2222.866666666667
69,2222.97999275,66689.3997825,66689,2222.9666666666667,2223.56321025,66706.89630749999,66706,2223.5333333333333,2225.5980675,66767.942025,66767,2225.5666666666666,1.782443394724396,3,2,3,1,1.0,2.0,b'HB_33_LongA.png',2227.3805108947245,66821.41532684173,66821,2227.366666666667
70,2227.5293765,66825.881295,66825,2227.5,2228.12925675,66843.8777025,66843,2228.1,2230.16282,66904.8846,66904,2230.133333333333,1.6808634512854042,1,2,2,1,1.0,3.0,b'NB_9_ShortA.png',2231.8436834512854,66955.31050353857,66955,2231.8333333333335
71,2231.85904025,66955.7712075,66955,2231.8333333333335,2232.3589417499998,66970.7682525,66970,2232.3333333333335,2234.39320275,67031.7960825,67031,2234.366666666667,1.6833461817586794,1,1,2,1,2.0,3.0,b'NB_30_LongA.png',2236.0765489317587,67082.29646795276,67082,2236.0666666666666
72,2236.13779575,67084.1338725,67084,2236.133333333333,2236.7043455,67101.13036499999,67101,2236.7,2238.73865875,67162.1597625,67162,2238.733333333333,1.6810833281779196,1,2,2,1,1.0,3.0,b'NB_27_LongA.png',2240.419742078178,67212.59226234534,67212,2240.4
73,2240.43398575,67213.0195725,67213,2240.4333333333334,2241.0172405,67230.517215,67230,2241.0,2243.05064525,67291.5193575,67291,2243.0333333333333,1.6806985932198586,1,2,7,2,2.0,3.0,b'NB_17_ShortA.png',2244.7313438432197,67341.9403152966,67341,2244.7
74,2244.92712,67347.8136,67347,2244.9,2245.49369175,67364.8107525,67364,2245.4666666666667,2247.5279649999998,67425.83894999999,67425,2247.5,1.6827060251234798,1,1,2,1,2.0,3.0,b'NB_20_LongA.png',2249.2106710251232,67476.3201307537,67476,2249.2
75,2249.26431475,67477.9294425,67477,2249.233333333333,2249.847526,67495.42578,67495,2249.8333333333335,2251.88232325,67556.4696975,67556,2251.866666666667,1.6814238870865665,1,1,2,1,2.0,3.0,b'NB_14_ShortA.png',2253.5637471370865,67606.9124141126,67606,2253.5333333333333
76,2253.5780729999997,67607.34219,67607,2253.5666666666666,2254.19462075,67625.8386225,67625,2254.1666666666665,2256.22914575,67686.8743725,67686,2256.2,1.7816921277262736,3,1,2,1,2.0,3.0,b'HB_5_LongA.png',2258.0108378777263,67740.32513633178,67740,2258.0
77,2258.0607775,67741.82332499999,67741,2258.0333333333333,2258.7106515,67761.319545,67761,2258.7,2260.744377,67822.33131,67822,2260.733333333333,1.780987797639682,3,2,2,1,1.0,3.0,b'HB_19_ShortA.png',2262.5253647976397,67875.76094392918,67875,2262.5
78,2262.6795629999997,67880.38689,67880,2262.6666666666665,2263.22945275,67896.8835825,67896,2263.2,2265.26289975,67957.8869925,67957,2265.233333333333,1.680601898158784,1,1,3,1,2.0,2.0,b'NB_30_ShortA.png',2266.943501648159,68008.30504944477,68008,2266.9333333333334
79,2266.99617025,68009.8851075,68009,2266.9666666666667,2267.5127195,68025.381585,68025,2267.5,2269.54634975,68086.3904925,68086,2269.5333333333333,1.6819681415654486,1,1,7,2,1.0,3.0,b'NB_26_LongA.png',2271.2283178915654,68136.84953674696,68136,2271.2
80,2271.3019495,68139.058485,68139,2271.3,2271.85182925,68155.55487749999,68155,2271.8333333333335,2273.8864555,68216.593665,68216,2273.866666666667,1.7822503774950746,3,1,3,1,2.0,2.0,b'HB_42_ShortA.png',2275.668705877495,68270.06117632485,68270,2275.6666666666665
81,2275.6832624999997,68270.49787499999,68270,2275.6666666666665,2276.216488,68286.49464,68286,2276.2,2278.24999225,68347.4997675,68347,2278.233333333333,1.7822376628027996,3,1,6,2,1.0,2.0,b'HB_6_ShortA.png',2280.032229912803,68400.96689738409,68400,2280.0
82,2280.1226455,68403.679365,68403,2280.1,2280.73918875,68422.1756625,68422,2280.733333333333,2282.7733475,68483.200425,68483,2282.766666666667,1.0209668260940816,2,1,2,1,2.0,3.0,b'SB_1_ShortA.png',2283.794314326094,68513.82942978283,68513,2283.766666666667
83,2283.84313575,68515.2940725,68515,2283.8333333333335,2284.426355,68532.79065,68532,2284.4,2286.4602255,68593.806765,68593,2286.4333333333334,1.7802075277431868,3,2,7,2,2.0,3.0,b'HB_21_LongA.png',2288.240433027743,68647.2129908323,68647,2288.233333333333
84,2288.25516625,68647.6549875,68647,2288.233333333333,2288.7717285,68663.151855,68663,2288.766666666667,2290.8051917499997,68724.1557525,68724,2290.8,1.6833569592417916,1,1,2,1,2.0,3.0,b'NB_22_LongA.png',2292.4885487092415,68774.65646127725,68774,2292.4666666666667
85,2292.5046279999997,68775.13883999999,68775,2292.5,2293.03785725,68791.1357175,68791,2293.0333333333333,2295.072852,68852.18556,68852,2295.0666666666666,1.7829126417491352,3,2,6,2,2.0,2.0,b'HB_57_LongA.png',2296.855764641749,68905.67293925247,68905,2296.8333333333335
86,2296.8692727499997,68906.07818249999,68906,2296.866666666667,2297.3858305,68921.57491499999,68921,2297.366666666667,2299.419215,68982.57645,68982,2299.4,1.7820591387717286,3,2,6,2,2.0,2.0,b'HB_8_ShortA.png',2301.2012741387716,69036.03822416315,69036,2301.2
87,2301.2568225,69037.704675,69037,2301.233333333333,2301.84003675,69055.2011025,69055,2301.8333333333335,2303.8746855,69116.240565,69116,2303.866666666667,1.7823236479889601,3,1,7,2,1.0,3.0,b'HB_13_LongA.png',2305.657009147989,69169.71027443967,69169,2305.633333333333
88,2305.739298,69172.17894,69172,2305.733333333333,2306.25585675,69187.6757025,69187,2306.233333333333,2308.28947725,69248.6843175,69248,2308.266666666667,0.9081586298852926,2,2,6,2,2.0,2.0,b'SB_37_ShortA.png',2309.197635879885,69275.92907639655,69275,2309.1666666666665
89,2309.314777,69279.44331,69279,2309.3,2309.88134375,69296.4403125,69296,2309.866666666667,2311.91520575,69357.4561725,69357,2311.9,1.9223817694874015,2,1,7,2,1.0,3.0,b'SB_4_ShortA.png',2313.8375875194874,69415.12762558462,69415,2313.8333333333335
90,2313.85251425,69415.57542749999,69415,2313.8333333333335,2314.50237525,69435.0712575,69435,2314.5,2316.5358705,69496.076115,69496,2316.5333333333333,2.214134279609425,2,2,2,1,1.0,3.0,b'SB_16_ShortA.png',2318.7500047796093,69562.50014338829,69562,2318.733333333333
91,2318.7653505,69562.960515,69562,2318.733333333333,2319.2818675,69578.45602499999,69578,2319.266666666667,2321.3156209999997,69639.46862999999,69639,2321.3,2.0099325151822995,2,2,6,2,2.0,2.0,b'SB_8_LongA.png',2323.325553515182,69699.76660545546,69699,2323.3
92,2323.43889525,69703.1668575,69703,2323.4333333333334,2323.97212125,69719.1636375,69719,2323.9666666666667,2326.005648,69780.16944,69780,2326.0,1.682660821301397,1,1,2,1,2.0,3.0,b'NB_2_LongA.png',2327.6883088213012,69830.64926463904,69830,2327.6666666666665
93,2327.703794,69831.11382,69831,2327.7,2328.30366075,69849.1098225,69849,2328.3,2330.3373727499998,69910.12118249999,69910,2330.3333333333335,1.7807216121145757,3,1,7,2,1.0,3.0,b'HB_31_ShortA.png',2332.1180943621143,69963.54283086343,69963,2332.1
94,2332.20013475,69966.0040425,69966,2332.2,2332.7167612499998,69981.5028375,69981,2332.7,2334.75005725,70042.5017175,70042,2334.733333333333,1.1877669213281479,2,1,7,2,1.0,3.0,b'SB_50_LongA.png',2335.937824171328,70078.13472513984,70078,2335.9333333333334
95,2335.95330525,70078.59915750001,70078,2335.9333333333334,2336.55317225,70096.5951675,70096,2336.5333333333333,2338.58669225,70157.6007675,70157,2338.5666666666666,1.8644858746411046,2,1,3,1,2.0,2.0,b'SB_57_LongA.png',2340.451178124641,70213.53534373923,70213,2340.4333333333334
96,2340.46629325,70213.9887975,70213,2340.4333333333334,2341.0661757499997,70231.9852725,70231,2341.0333333333333,2343.0996935,70292.990805,70292,2343.0666666666666,1.7835941891389666,3,2,2,1,1.0,3.0,b'HB_59_LongA.png',2344.883287689139,70346.49863067416,70346,2344.866666666667
97,2344.8987075,70346.961225,70346,2344.866666666667,2345.598561,70367.95683,70367,2345.5666666666666,2347.6323509999997,70428.97052999999,70428,2347.6,1.6825115762912901,1,1,2,1,2.0,3.0,b'NB_15_LongA.png',2349.314862576291,70479.44587728873,70479,2349.3
98,2349.3903137499997,70481.70941249999,70481,2349.366666666667,2349.95686975,70498.7060925,70498,2349.9333333333334,2351.991602,70559.74806,70559,2351.9666666666667,1.3177943298505852,2,1,2,1,2.0,3.0,b'SB_54_LongA.png',2353.3093963298506,70599.28188989552,70599,2353.3
99,2353.43429975,70603.0289925,70603,2353.4333333333334,2353.93418725,70618.0256175,70618,2353.9333333333334,2355.9687384999997,70679.06215499999,70679,2355.9666666666667,1.782809025287861,3,1,6,2,1.0,2.0,b'HB_12_LongA.png',2357.7515475252876,70732.54642575863,70732,2357.733333333333
100,2357.765699,70732.97097,70732,2357.733333333333,2358.3489074999998,70750.467225,70750,2358.3333333333335,2360.3831244999997,70811.493735,70811,2360.366666666667,1.2805382311053108,2,1,6,2,1.0,2.0,b'SB_51_ShortA.png',2361.663662731105,70849.90988193316,70849,2361.633333333333
101,2361.6781515,70850.344545,70850,2361.6666666666665,2362.19472175,70865.8416525,70865,2362.1666666666665,2364.2280775,70926.842325,70926,2364.2,1.781200595694827,3,2,2,1,1.0,3.0,b'HB_37_LongA.png',2366.0092780956948,70980.27834287085,70980,2366.0
102,2366.0500362499997,70981.50108749999,70981,2366.0333333333333,2366.6166,70998.49799999999,70998,2366.6,2368.650619,71059.51857,71059,2368.633333333333,1.6812120105169015,1,2,2,1,1.0,3.0,b'NB_6_ShortA.png',2370.331831010517,71109.9549303155,71109,2370.3
103,2370.34653825,71110.3961475,71110,2370.3333333333335,2370.9130864999997,71127.392595,71127,2370.9,2372.94773725,71188.43211750001,71188,2372.9333333333334,1.7818024836451514,3,1,7,2,1.0,3.0,b'HB_38_ShortA.png',2374.729539733645,71241.88619200936,71241,2374.7
104,2374.7807319999997,71243.42195999999,71243,2374.766666666667,2375.297313,71258.91939,71258,2375.266666666667,2377.3310205,71319.93061499999,71319,2377.3,1.6814053040725412,1,2,7,2,2.0,3.0,b'NB_11_LongA.png',2379.0124258040723,71370.37277412217,71370,2379.0
105,2379.0828035,71372.484105,71372,2379.0666666666666,2379.58270825,71387.48124749999,71387,2379.5666666666666,2381.6161485,71448.484455,71448,2381.6,1.6826805807795608,1,1,2,1,2.0,3.0,b'NB_6_LongA.png',2383.2988290807793,71498.96487242338,71498,2383.266666666667
106,2383.3141645,71499.424935,71499,2383.3,2383.8640594999997,71515.92178499998,71515,2383.8333333333335,2385.897768,71576.93303999999,71576,2385.866666666667,1.6829784354631556,1,1,7,2,1.0,3.0,b'NB_7_ShortA.png',2387.580746435463,71627.42239306388,71627,2387.5666666666666
107,2387.691343,71630.74029,71630,2387.6666666666665,2388.1912315,71645.736945,71645,2388.1666666666665,2390.225707,71706.77121,71706,2390.2,1.6828215613495559,1,2,3,1,1.0,2.0,b'NB_8_ShortA.png',2391.9085285613496,71757.2558568405,71757,2391.9
108,2392.03934725,71761.1804175,71761,2392.0333333333333,2392.57257275,71777.17718249999,71777,2392.5666666666666,2394.60666725,71838.2000175,71838,2394.6,0.8657859212544281,2,1,2,1,2.0,3.0,b'SB_2_LongA.png',2395.4724531712545,71864.17359513763,71864,2395.4666666666667
109,2395.6086685,71868.260055,71868,2395.6,2396.2085675,71886.257025,71886,2396.2,2398.2420115,71947.260345,71947,2398.233333333333,1.7814037015923532,3,1,6,2,1.0,2.0,b'HB_55_LongA.png',2400.0234152015923,72000.70245604777,72000,2400.0
110,2400.07608425,72002.28252749999,72002,2400.0666666666666,2400.725926,72021.77778,72021,2400.7,2402.75958675,72082.7876025,72082,2402.733333333333,1.2296487574640196,2,1,2,1,2.0,3.0,b'SB_29_ShortA.png',2403.989235507464,72119.67706522392,72119,2403.9666666666667
111,2404.0611595,72121.834785,72121,2404.0333333333333,2404.6610445,72139.83133500001,72139,2404.633333333333,2406.6955285,72200.865855,72200,2406.6666666666665,0.9984132389799925,2,1,7,2,1.0,3.0,b'SB_28_LongA.png',2407.69394173898,72230.8182521694,72230,2407.6666666666665
112,2407.70839675,72231.2519025,72231,2407.7,2408.29161725,72248.7485175,72248,2408.266666666667,2410.32511825,72309.75354749999,72309,2410.3,1.6824105309060542,1,2,2,1,1.0,3.0,b'NB_9_LongA.png',2412.007528780906,72360.22586342717,72360,2412.0
113,2412.13181825,72363.9545475,72363,2412.1,2412.6150475,72378.45142499999,72378,2412.6,2414.648507,72439.45521,72439,2414.633333333333,1.681247431813972,1,2,7,2,2.0,3.0,b'NB_12_ShortA.png',2416.329754431814,72489.89263295442,72489,2416.3
114,2416.394331,72491.82992999999,72491,2416.366666666667,2416.94423375,72508.3270125,72508,2416.9333333333334,2418.97890875,72569.36726249999,72569,2418.9666666666667,1.6818635189265478,1,2,7,2,2.0,3.0,b'NB_1_ShortA.png',2420.6607722689264,72619.82316806779,72619,2420.633333333333
115,2420.72556525,72621.76695749999,72621,2420.7,2421.22547,72636.7641,72636,2421.2,2423.258887,72697.76660999999,72697,2423.233333333333,1.2362826653552474,2,1,3,1,2.0,2.0,b'SB_21_ShortA.png',2424.495169665355,72734.85508996065,72734,2424.4666666666667
116,2424.51032875,72735.3098625,72735,2424.5,2425.0768789999997,72752.30636999999,72752,2425.0666666666666,2427.11095625,72813.3286875,72813,2427.1,1.782402864395408,3,1,7,2,1.0,3.0,b'HB_54_ShortA.png',2428.8933591143955,72866.80077343187,72866,2428.866666666667
117,2428.94732175,72868.4196525,72868,2428.9333333333334,2429.480542,72884.41626,72884,2429.4666666666667,2431.514084,72945.42252,72945,2431.5,1.7827811910829041,3,1,3,1,2.0,2.0,b'HB_4_LongA.png',2433.296865191083,72998.90595573248,72998,2433.266666666667
118,2433.3748075,73001.244225,73001,2433.366666666667,2433.90803525,73017.2410575,73017,2433.9,2435.9424572499997,73078.2737175,73078,2435.9333333333334,1.0606824937422061,2,1,2,1,2.0,3.0,b'SB_43_ShortA.png',2437.003139743742,73110.09419231226,73110,2437.0
119,2437.1350037499997,73114.05011249999,73114,2437.133333333333,2437.734883,73132.04649000001,73132,2437.733333333333,2439.76822275,73193.0466825,73193,2439.766666666667,1.782356685900595,3,2,2,1,1.0,3.0,b'HB_3_ShortA.png',2441.5505794359005,73246.51738307702,73246,2441.5333333333333
120,2441.61778225,73248.53346749999,73248,2441.6,2442.2176805,73266.530415,73266,2442.2,2444.25123675,73327.53710249999,73327,2444.233333333333,1.7824579184816685,3,1,7,2,1.0,3.0,b'HB_36_ShortA.png',2446.0336946684815,73381.01084005444,73381,2446.0333333333333
121,2446.04929975,73381.47899250001,73381,2446.0333333333333,2446.5991575,73397.974725,73397,2446.5666666666666,2448.632623,73458.97869,73458,2448.6,1.191468023651396,2,1,3,1,2.0,2.0,b'SB_31_LongA.png',2449.8240910236514,73494.72273070955,73494,2449.8
122,2449.9076425,73497.22927499999,73497,2449.9,2450.45750775,73513.7252325,73513,2450.4333333333334,2452.4914025,73574.74207499999,73574,2452.4666666666667,1.6829087982478086,1,1,2,1,2.0,3.0,b'NB_12_LongA.png',2454.1743112982476,73625.22933894742,73625,2454.1666666666665
123,2454.2747925,73628.243775,73628,2454.266666666667,2454.824687,73644.74061,73644,2454.8,2456.85939125,73705.7817375,73705,2456.8333333333335,1.683042286997079,1,1,6,2,1.0,2.0,b'NB_5_LongA.png',2458.542433536997,73756.27300610991,73756,2458.5333333333333
124,2458.6493855,73759.481565,73759,2458.633333333333,2459.21594625,73776.4783875,73776,2459.2,2461.24959175,73837.4877525,73837,2461.233333333333,1.6822976924449904,1,2,2,1,1.0,3.0,b'NB_24_LongA.png',2462.931889442445,73887.95668327335,73887,2462.9
125,2463.0566455,73891.699365,73891,2463.0333333333333,2463.6565232499997,73909.69569749999,73909,2463.633333333333,2465.69011375,73970.70341249999,73970,2465.6666666666665,1.6820839097781572,1,2,2,1,1.0,3.0,b'NB_2_ShortA.png',2467.372197659778,74021.16592979334,74021,2467.366666666667
126,2467.38723525,74021.6170575,74021,2467.366666666667,2468.02045225,74040.6135675,74040,2468.0,2470.0547874999997,74101.643625,74101,2470.0333333333333,0.6510199219774222,2,2,2,1,1.0,3.0,b'SB_35_ShortA.png',2470.705807421977,74121.17422265932,74121,2470.7
127,2470.72003025,74121.6009075,74121,2470.7,2471.3532275,74140.59682499999,74140,2471.3333333333335,2473.38775525,74201.6326575,74201,2473.366666666667,1.5674229702271987,2,2,2,1,1.0,3.0,b'SB_56_ShortA.png',2474.955178220227,74248.65534660681,74248,2474.9333333333334
128,2474.9693055,74249.07916499999,74249,2474.9666666666667,2475.6191747499997,74268.5752425,74268,2475.6,2477.6526114999997,74329.57834499999,74329,2477.633333333333,1.6822586684138514,1,2,7,2,2.0,3.0,b'NB_21_LongA.png',2479.3348701684135,74380.0461050524,74380,2479.3333333333335
129,2479.492555,74384.77665,74384,2479.4666666666667,2480.1090905,74403.272715,74403,2480.1,2482.1426724999997,74464.28017499999,74464,2482.133333333333,0.7824499988637399,2,1,6,2,1.0,2.0,b'SB_22_ShortA.png',2482.9251224988634,74487.7536749659,74487,2482.9
130,2483.05671725,74491.7015175,74491,2483.0333333333333,2483.5899477499997,74507.6984325,74507,2483.5666666666666,2485.62375975,74568.7127925,74568,2485.6,1.7825185714027612,3,1,6,2,1.0,2.0,b'HB_51_ShortA.png',2487.4062783214026,74622.18834964208,74622,2487.4
131,2487.532429,74625.97287,74625,2487.5,2488.11564625,74643.4693875,74643,2488.1,2490.1492795,74704.478385,74704,2490.133333333333,1.7809542597387917,3,1,3,1,2.0,2.0,b'HB_17_ShortA.png',2491.9302337597387,74757.90701279216,74757,2491.9
132,2491.9869397499997,74759.60819249999,74759,2491.9666666666667,2492.47018175,74774.10545249999,74774,2492.4666666666667,2494.50448875,74835.1346625,74835,2494.5,1.483134411915671,2,2,2,1,1.0,3.0,b'SB_24_ShortA.png',2495.9876231619155,74879.62869485747,74879,2495.9666666666667
133,2496.08713025,74882.6139075,74882,2496.0666666666666,2496.620364,74898.61091999999,74898,2496.6,2498.6540904999997,74959.62271499999,74959,2498.633333333333,1.0666689262725413,2,1,3,1,2.0,2.0,b'SB_5_ShortA.png',2499.7207594262723,74991.62278278817,74991,2499.7
134,2499.820165,74994.60495000001,74994,2499.8,2500.28674675,75008.6024025,75008,2500.266666666667,2502.32020625,75069.6061875,75069,2502.3,0.9701638614351396,2,1,7,2,1.0,3.0,b'SB_3_LongA.png',2503.290370111435,75098.71110334306,75098,2503.266666666667
135,2503.36587925,75100.9763775,75100,2503.3333333333335,2503.96575325,75118.9725975,75118,2503.9333333333334,2506.0002262499997,75180.0067875,75180,2506.0,1.6816551518713823,1,2,7,2,2.0,3.0,b'NB_18_LongA.png',2507.681881401871,75230.45644205614,75230,2507.6666666666665
136,2507.791228,75233.73684,75233,2507.766666666667,2508.3244757499997,75249.73427249999,75249,2508.3,2510.357919,75310.73757,75310,2510.3333333333335,1.6826375126693165,1,2,3,1,1.0,2.0,b'NB_4_LongA.png',2512.0405565126694,75361.21669538008,75361,2512.0333333333333
137,2512.156901,75364.70702999999,75364,2512.133333333333,2512.67345025,75380.2035075,75380,2512.6666666666665,2514.707583,75441.22748999999,75441,2514.7,0.5329699431167683,2,2,2,1,1.0,3.0,b'SB_46_LongA.png',2515.2405529431167,75457.2165882935,75457,2515.233333333333
138,2515.35512825,75460.6538475,75460,2515.3333333333335,2515.971665,75479.14995,75479,2515.9666666666667,2518.0052622499998,75540.15786749999,75540,2518.0,1.7826898942294065,3,1,2,1,2.0,3.0,b'HB_16_LongA.png',2519.787952144229,75593.63856432687,75593,2519.766666666667
139,2519.85524675,75595.6574025,75595,2519.8333333333335,2520.4551069999998,75613.65320999999,75613,2520.4333333333334,2522.4894824999997,75674.68447499999,75674,2522.4666666666667,1.6821734483237378,1,2,7,2,2.0,3.0,b'NB_13_LongA.png',2524.1716559483234,75725.1496784497,75725,2524.1666666666665
140,2524.240802,75727.22406,75727,2524.233333333333,2524.74063325,75742.2189975,75742,2524.733333333333,2526.77475075,75803.24252249999,75803,2526.766666666667,1.7811563185387058,3,1,2,1,2.0,3.0,b'HB_11_ShortA.png',2528.5559070685385,75856.67721205615,75856,2528.5333333333333
141,2528.570752,75857.12256,75857,2528.5666666666666,2529.220624,75876.61872,75876,2529.2,2531.25521625,75937.6564875,75937,2531.233333333333,1.2043803925917018,2,2,7,2,2.0,3.0,b'SB_41_shortA.png',2532.459596642592,75973.78789927776,75973,2532.4333333333334
142,2532.57793225,75977.33796749999,75977,2532.5666666666666,2533.0611759999997,75991.83527999998,75991,2533.0333333333333,2535.09568125,76052.8704375,76052,2535.0666666666666,1.6823547764361138,1,2,3,1,1.0,2.0,b'NB_8_LongA.png',2536.778036026436,76103.34108079308,76103,2536.766666666667
143,2536.79228075,76103.7684225,76103,2536.766666666667,2537.2755067499997,76118.2652025,76118,2537.266666666667,2539.3090254999997,76179.270765,76179,2539.3,1.782595547105302,3,2,2,1,1.0,3.0,b'HB_49_LongA.png',2541.091621047105,76232.74863141315,76232,2541.0666666666666
144,2541.1650495,76234.951485,76234,2541.133333333333,2541.7149449999997,76251.44834999999,76251,2541.7,2543.74941425,76312.4824275,76312,2543.733333333333,1.780940889613703,3,1,2,1,2.0,3.0,b'HB_15_LongA.png',2545.5303551396137,76365.91065418841,76365,2545.5
145,2545.6030175,76368.090525,76368,2545.6,2546.15290525,76384.5871575,76384,2546.133333333333,2548.187294,76445.61881999999,76445,2548.1666666666665,1.6818978469673311,1,1,7,2,1.0,3.0,b'NB_20_ShortA.png',2549.869191846967,76496.07575540901,76496,2549.866666666667
146,2549.99011875,76499.7035625,76499,2549.9666666666667,2550.5233559999997,76515.70068,76515,2550.5,2552.55680675,76576.7042025,76576,2552.5333333333333,1.6822431239124853,1,2,2,1,1.0,3.0,b'NB_13_ShortA.png',2554.2390498739123,76627.17149621737,76627,2554.233333333333
147,2554.3311325,76629.93397499999,76629,2554.3,2554.9643415,76648.930245,76648,2554.9333333333334,2556.9985125,76709.95537499999,76709,2556.9666666666667,1.7830644909554394,3,1,2,1,2.0,3.0,b'HB_47_ShortA.png',2558.7815769909553,76763.44730972865,76763,2558.766666666667
148,2558.8450334999998,76765.35100499999,76765,2558.8333333333335,2559.4615747499997,76783.84724249999,76783,2559.4333333333334,2561.4962404999997,76844.887215,76844,2561.4666666666667,1.782406646234449,3,1,2,1,2.0,3.0,b'HB_58_ShortA.png',2563.278647146234,76898.35941438703,76898,2563.266666666667
149,2563.4665875,76903.997625,76903,2563.4333333333334,2564.01648075,76920.4944225,76920,2564.0,2566.0506797499997,76981.5203925,76981,2566.0333333333333,1.6815511750319274,1,2,2,1,1.0,3.0,b'NB_3_ShortA.png',2567.7322309250317,77031.96692775095,77031,2567.7
150,2567.74667625,77032.4002875,77032,2567.733333333333,2568.2965747499998,77048.8972425,77048,2568.266666666667,2570.3301765,77109.905295,77109,2570.3,1.7326748350897105,2,2,3,1,1.0,2.0,b'SB_38_ShortA.png',2572.06285133509,77161.8855400527,77161,2572.0333333333333
151,2572.1281755,77163.845265,77163,2572.1,2572.67804825,77180.34144749999,77180,2572.6666666666665,2574.7116379999998,77241.34913999999,77241,2574.7,1.7827669577527558,3,1,6,2,1.0,2.0,b'HB_32_ShortA.png',2576.4944049577525,77294.83214873257,77294,2576.4666666666667
152,2576.56736025,77297.0208075,77297,2576.5666666666666,2577.06726025,77312.0178075,77312,2577.0666666666666,2579.10105775,77373.0317325,77373,2579.1,2.063154844712699,2,1,3,1,2.0,2.0,b'SB_44_ShortA.png',2581.164212594713,77434.92637784139,77434,2581.133333333333
153,2581.17901725,77435.3705175,77435,2581.1666666666665,2581.81222625,77454.36678750001,77454,2581.8,2583.846744,77515.40232,77515,2583.8333333333335,1.5699118029151578,2,1,7,2,1.0,3.0,b'SB_33_LongA.png',2585.416655802915,77562.49967408745,77562,2585.4
154,2585.484383,77564.53149,77564,2585.4666666666667,2586.11759475,77583.5278425,77583,2586.1,2588.1514604999998,77644.543815,77644,2588.133333333333,1.6831959974078927,1,1,7,2,1.0,3.0,b'NB_29_ShortA.png',2589.8346564974077,77695.03969492223,77695,2589.8333333333335
155,2589.919938,77697.59814,77697,2589.9,2590.48650975,77714.5952925,77714,2590.4666666666667,2592.52108125,77775.6324375,77775,2592.5,1.6818021667422727,1,1,2,1,2.0,3.0,b'NB_18_ShortA.png',2594.202883416742,77826.08650250226,77826,2594.2
156,2594.28261075,77828.4783225,77828,2594.266666666667,2594.815838,77844.47514,77844,2594.8,2596.84951775,77905.4855325,77905,2596.8333333333335,0.7856743623415241,2,2,7,2,2.0,3.0,b'SB_32_LongA.png',2597.6351921123414,77929.05576337024,77929,2597.633333333333
157,2597.67860975,77930.3582925,77930,2597.6666666666665,2598.211835,77946.35505,77946,2598.2,2600.2459504999997,78007.37851499999,78007,2600.233333333333,1.242271287017502,2,2,2,1,1.0,3.0,b'SB_26_LongA.png',2601.488221787017,78044.64665361051,78044,2601.4666666666667
158,2601.5454584999998,78046.363755,78046,2601.5333333333333,2602.14532875,78064.3598625,78064,2602.133333333333,2604.1799134999997,78125.397405,78125,2604.1666666666665,1.8134132819832303,2,1,6,2,1.0,2.0,b'SB_23_LongA.png',2605.993326781983,78179.7998034595,78179,2605.9666666666667
159,2606.02428475,78180.7285425,78180,2606.0,2606.60749825,78198.2249475,78198,2606.6,2608.65849475,78259.7548425,78259,2608.633333333333,1.5544879898952786,2,2,3,1,1.0,2.0,b'SB_55_LongA.png',2610.2129827398953,78306.38948219686,78306,2610.2
160,2610.3053379999997,78309.16013999999,78309,2610.3,2610.8552154999998,78325.656465,78325,2610.8333333333335,2612.88948275,78386.6844825,78386,2612.866666666667,1.0665673502953723,2,1,6,2,1.0,2.0,b'SB_25_LongA.png',2613.956050100295,78418.68150300886,78418,2613.9333333333334
161,2613.9704227499997,78419.1126825,78419,2613.9666666666667,2614.520246,78435.60738,78435,2614.5,2616.5543055,78496.62916499999,78496,2616.5333333333333,1.4352650560176698,2,2,2,1,1.0,3.0,b'SB_19_LongA.png',2617.9895705560175,78539.68711668052,78539,2617.9666666666667
162,2618.1204005,78543.61201499999,78543,2618.1,2618.720273,78561.60819,78561,2618.7,2620.7547477499998,78622.6424325,78622,2620.733333333333,1.6825295758899301,1,2,7,2,2.0,3.0,b'NB_1_LongA.png',2622.4372773258897,78673.1183197767,78673,2622.4333333333334
163,2622.4525249999997,78673.57574999999,78673,2622.4333333333334,2622.96908525,78689.0725575,78689,2622.9666666666667,2625.0030165,78750.090495,78750,2625.0,1.7264713771437528,2,1,2,1,2.0,3.0,b'SB_45_ShortA.png',2626.7294878771436,78801.88463631431,78801,2626.7
164,2626.74419525,78802.32585749999,78802,2626.733333333333,2627.377391,78821.32173,78821,2627.366666666667,2629.4110877499998,78882.3326325,78882,2629.4,1.680569510703208,1,1,7,2,1.0,3.0,b'NB_23_ShortA.png',2631.091657260703,78932.74971782109,78932,2631.0666666666666
165,2631.1827319999998,78935.48195999999,78935,2631.1666666666665,2631.8159375,78954.478125,78954,2631.8,2633.84971375,79015.49141249999,79015,2633.8333333333335,1.6827422595961252,1,2,2,1,1.0,3.0,b'NB_21_ShortA.png',2635.532456009596,79065.97368028788,79065,2635.5
166,2635.6746854999997,79070.24056499999,79070,2635.6666666666665,2636.1912525,79085.73757499999,79085,2636.1666666666665,2638.22516925,79146.7550775,79146,2638.2,1.1693121158168651,2,1,2,1,2.0,3.0,b'SB_6_LongA.png',2639.394481365817,79181.8344409745,79181,2639.366666666667
167,2639.40939025,79182.28170749999,79182,2639.4,2639.9592574999997,79198.77772499999,79198,2639.9333333333334,2641.9938595,79259.815785,79259,2641.9666666666667,1.7813466938823694,3,2,2,1,1.0,3.0,b'HB_53_LongA.png',2643.7752061938822,79313.25618581647,79313,2643.766666666667
168,2643.83847625,79315.1542875,79315,2643.8333333333335,2644.355039,79330.65117,79330,2644.3333333333335,2646.3894,79391.682,79391,2646.366666666667,1.0115920217940584,2,1,2,1,2.0,3.0,b'SB_39_LongA.png',2647.400992021794,79422.02976065382,79422,2647.4
169,2647.538114,79426.14342,79426,2647.5333333333333,2648.10466825,79443.1400475,79443,2648.1,2650.1388712499997,79504.1661375,79504,2650.133333333333,1.6817376986291492,1,2,2,1,1.0,3.0,b'NB_10_LongA.png',2651.820608948629,79554.61826845887,79554,2651.8
170,2651.9590235,79558.770705,79558,2651.9333333333334,2652.55890375,79576.76711249999,79576,2652.5333333333333,2654.59254925,79637.7764775,79637,2654.5666666666666,0.9866606458672322,2,2,2,1,1.0,3.0,b'SB_9_ShortA.png',2655.5792098958673,79667.37629687601,79667,2655.5666666666666
171,2655.7044742499997,79671.13422749999,79671,2655.7,2656.2876714999998,79688.63014499999,79688,2656.266666666667,2658.32226825,79749.6680475,79749,2658.3,1.5592317205155268,2,2,6,2,2.0,2.0,b'SB_49_ShortA.png',2659.8814999705155,79796.44499911547,79796,2659.866666666667
172,2659.8956709999998,79796.87013,79796,2659.866666666667,2660.49553925,79814.86617750001,79814,2660.4666666666667,2662.52889675,79875.8669025,79875,2662.5,1.7827594579284778,3,2,2,1,1.0,3.0,b'HB_28_LongA.png',2664.3116562079285,79929.34968623785,79929,2664.3
173,2664.37052,79931.1156,79931,2664.366666666667,2664.8537435,79945.61230499999,79945,2664.8333333333335,2666.88753025,80006.6259075,80006,2666.866666666667,1.6824662061408162,1,2,7,2,2.0,3.0,b'NB_29_LongA.png',2668.569996456141,80057.09989368422,80057,2668.5666666666666
174,2668.644105,80059.32315,80059,2668.633333333333,2669.1773315,80075.319945,80075,2669.1666666666665,2671.21103625,80136.33108749999,80136,2671.2,1.5496432605868904,2,1,6,2,1.0,2.0,b'SB_20_LongA.png',2672.7606795105867,80182.8203853176,80182,2672.733333333333
175,2672.81063225,80184.31896749999,80184,2672.8,2673.4438849999997,80203.31654999999,80203,2673.4333333333334,2675.4777695,80264.33308499999,80264,2675.4666666666667,1.781271676547476,3,2,7,2,2.0,3.0,b'HB_23_ShortA.png',2677.2590411765473,80317.77123529642,80317,2677.233333333333
176,2677.27414525,80318.2243575,80318,2677.266666666667,2677.75738625,80332.7215875,80332,2677.733333333333,2679.791233,80393.73699,80393,2679.766666666667,1.6816938252741238,1,1,2,1,2.0,3.0,b'NB_23_LongA.png',2681.472926825274,80444.18780475823,80444,2681.4666666666667
177,2681.55009075,80446.5027225,80446,2681.5333333333333,2682.183295,80465.49884999999,80465,2682.1666666666665,2684.2178715,80526.536145,80526,2684.2,1.1246224661299493,2,2,2,1,1.0,3.0,b'SB_11_ShortA.png',2685.34249396613,80560.2748189839,80560,2685.3333333333335
178,2685.3566,80560.698,80560,2685.3333333333335,2685.93982,80578.1946,80578,2685.9333333333334,2687.9736035,80639.208105,80639,2687.9666666666667,1.6825120074063307,1,2,2,1,1.0,3.0,b'NB_25_ShortA.png',2689.6561155074064,80689.68346522219,80689,2689.633333333333
179,2689.705391,80691.16172999999,80691,2689.7,2690.33079,80709.9237,80709,2690.3,2692.37068475,80771.1205425,80771,2692.366666666667,0.6797139270493062,2,1,2,1,2.0,3.0,b'SB_30_ShortA.png',2693.050398677049,80791.51196031147,80791,2693.0333333333333
180,2693.0681965,80792.045895,80792,2693.0666666666666,2693.649661,80809.48982999999,80809,2693.633333333333,2695.7294505,80871.883515,80871,2695.7,1.3822032704338199,2,2,7,2,2.0,3.0,b'SB_30_LongA.png',2697.111653770434,80913.34961311301,80913,2697.1
