trial_num,fixcross_time,fixation_HZ,fixation_bin,fixation_regarded,start_time,Fstart_HZ,Fstart_bin,Fstart_regarded,stop_time,Fstop_HZ,Fstop_bin,Fstop_regarded,RT,boundary_type,key,resp_value,leftright,accuracy,confidence,frameName,response_time,response_HZ,response_bin,response_regarded
1,2044.106752,61323.20256,61323,2044.1,2044.606464,61338.19392,61338,2044.6,2046.641152,61399.23456,61399,2046.6333333333334,4.813885903226037,1,2,6,2,2.0,2.0,b'NB_24_ShortA.png',2051.455037903226,61543.651137096786,61543,2051.4333333333334
2,2051.468288,61544.04864,61544,2051.4666666666667,2052.0519679999998,61561.55903999999,61561,2052.0333333333333,2054.085632,61622.56896,61622,2054.0666666666666,1.596826327038798,1,1,2,1,2.0,3.0,b'NB_27_LongA.png',2055.6824583270386,61670.47374981116,61670,2055.6666666666665
3,2055.694336,61670.83008,61670,2055.6666666666665,2056.226816,61686.80448,61686,2056.2,2058.26048,61747.814399999996,61747,2058.233333333333,2.9516433481649074,2,2,7,2,2.0,3.0,b'SB_27_LongA.png',2061.212123348165,61836.36370044494,61836,2061.2
4,2061.220864,61836.62592,61836,2061.2,2061.754368,61852.63103999999,61852,2061.733333333333,2063.788032,61913.64096,61913,2063.766666666667,3.4012238605887433,2,2,7,2,2.0,3.0,b'SB_43_LongA.png',2067.1892558605887,62015.67767581766,62015,2067.1666666666665
5,2067.1928319999997,62015.78495999999,62015,2067.1666666666665,2067.7099519999997,62031.29855999999,62031,2067.7,2069.7436159999997,62092.30847999999,62092,2069.733333333333,0.6138756544937678,2,1,2,1,2.0,3.0,b'SB_47_LongA.png',2070.3574916544935,62110.724749634806,62110,2070.3333333333335
6,2070.36416,62110.9248,62110,2070.3333333333335,2070.897664,62126.92992,62126,2070.866666666667,2072.931328,62187.93984000001,62187,2072.9,-0.2056992991711013,2,1,2,1,2.0,3.0,b'SB_49_LongA.png',2072.725628700829,62181.76886102487,62181,2072.7
7,2072.735744,62182.07232,62182,2072.733333333333,2073.269248,62198.07744,62198,2073.266666666667,2075.302912,62259.087360000005,62259,2075.3,2.809010836395828,3,1,4,1,2.0,1.0,b'HB_21_ShortA.png',2078.111922836396,62343.357685091876,62343,2078.1
8,2078.123008,62343.69024,62343,2078.1,2078.640128,62359.20384,62359,2078.633333333333,2080.673792,62420.21376,62420,2080.6666666666665,1.264841971527403,1,1,2,1,2.0,3.0,b'NB_9_LongA.png',2081.9386339715275,62458.15901914582,62458,2081.9333333333334
9,2081.95584,62458.675200000005,62458,2081.9333333333334,2082.538496,62476.15488,62476,2082.5333333333333,2084.573184,62537.195519999994,62537,2084.5666666666666,2.5202040394215146,3,1,3,1,2.0,2.0,b'HB_9_ShortA.png',2087.0933880394214,62612.80164118264,62612,2087.0666666666666
10,2087.097344,62612.92031999999,62612,2087.0666666666666,2087.630848,62628.92543999999,62628,2087.6,2089.664512,62689.935359999996,62689,2089.633333333333,3.4833130279089346,1,1,2,1,2.0,3.0,b'NB_26_ShortA.png',2093.1478250279088,62794.43475083726,62794,2093.133333333333
11,2093.165568,62794.967039999996,62794,2093.133333333333,2093.748224,62812.44672,62812,2093.733333333333,2095.781888,62873.45664,62873,2095.766666666667,0.9124882542187152,1,2,7,2,2.0,3.0,b'NB_3_ShortA.png',2096.6943762542187,62900.83128762656,62900,2096.6666666666665
12,2096.708608,62901.258239999996,62901,2096.7,2097.27488,62918.246399999996,62918,2097.266666666667,2099.308544,62979.25632,62979,2099.3,3.3336260433607094,2,1,2,1,2.0,3.0,b'SB_34_ShortA.png',2102.6421700433607,63079.26510130082,63079,2102.633333333333
13,2102.653952,63079.61856,63079,2102.633333333333,2103.153664,63094.609919999995,63094,2103.133333333333,2105.186304,63155.58912,63155,2105.1666666666665,1.7375712222569746,1,2,7,2,2.0,3.0,b'NB_24_LongA.png',2106.923875222257,63207.71625666771,63207,2106.9
14,2106.930176,63207.90527999999,63207,2106.9,2107.496448,63224.89344,63224,2107.4666666666667,2109.530112,63285.90336,63285,2109.5,2.0422313795661466,3,2,6,2,2.0,2.0,b'HB_19_LongA.png',2111.572343379566,63347.170301386985,63347,2111.5666666666666
15,2111.577088,63347.312640000004,63347,2111.5666666666666,2112.093184,63362.79551999999,63362,2112.0666666666666,2114.126848,63423.80544,63423,2114.1,2.889044208764517,3,1,3,1,2.0,2.0,b'HB_29_LongA.png',2117.0158922087644,63510.47676626293,63510,2117.0
16,2117.0247679999998,63510.743039999994,63510,2117.0,2117.508096,63525.24288,63525,2117.5,2119.54176,63586.2528,63586,2119.5333333333333,2.2140583277941914,2,2,7,2,2.0,3.0,b'SB_37_LongA.png',2121.7558183277943,63652.67454983383,63652,2121.733333333333
17,2121.769984,63653.09952,63653,2121.766666666667,2122.336256,63670.087680000004,63670,2122.3333333333335,2124.36992,63731.0976,63731,2124.366666666667,0.7546238858908509,2,1,2,1,2.0,3.0,b'SB_30_ShortA.png',2125.124543885891,63753.73631657673,63753,2125.1
18,2125.1317759999997,63753.953279999994,63753,2125.1,2125.715456,63771.46368,63771,2125.7,2127.74912,63832.4736,63832,2127.733333333333,0.18810080204229962,1,1,3,1,2.0,2.0,b'NB_15_LongA.png',2127.9372208020422,63838.116624061266,63838,2127.9333333333334
19,2127.950848,63838.52544,63838,2127.9333333333334,2128.500736,63855.022079999995,63855,2128.5,2130.5344,63916.032,63916,2130.5333333333333,2.8477563556875793,2,1,2,1,2.0,3.0,b'SB_28_ShortA.png',2133.3821563556876,64001.464690670626,64001,2133.366666666667
20,2133.393408,64001.80224,64001,2133.366666666667,2133.9095039999997,64017.28511999999,64017,2133.9,2135.943168,64078.29504,64078,2135.9333333333334,2.8658033198962585,3,2,3,1,1.0,2.0,b'HB_36_LongA.png',2138.808971319896,64164.26913959688,64164,2138.8
21,2138.825728,64164.771839999994,64164,2138.8,2139.341824,64180.254720000004,64180,2139.3333333333335,2141.3754879999997,64241.264639999994,64241,2141.366666666667,2.8881560353561326,2,2,7,2,2.0,3.0,b'SB_12_LongA.png',2144.263644035356,64327.90932106067,64327,2144.233333333333
22,2144.2682879999998,64328.04863999999,64328,2144.266666666667,2144.8181759999998,64344.54527999999,64344,2144.8,2146.85184,64405.555199999995,64405,2146.8333333333335,2.197050342183047,1,1,2,1,2.0,3.0,b'NB_25_ShortA.png',2149.048890342183,64471.466710265486,64471,2149.0333333333333
23,2149.052416,64471.57248,64471,2149.0333333333333,2149.552128,64486.563839999995,64486,2149.5333333333333,2151.585792,64547.57376,64547,2151.5666666666666,1.3559674568509763,3,2,3,1,1.0,2.0,b'HB_11_ShortA.png',2152.941759456851,64588.252783705524,64588,2152.9333333333334
24,2152.96,64588.8,64588,2152.9333333333334,2153.476096,64604.28288,64604,2153.4666666666667,2155.538432,64666.15295999999,64666,2155.5333333333333,2.448553731206175,1,1,2,1,2.0,3.0,b'NB_13_LongA.png',2157.986985731206,64739.60957193618,64739,2157.9666666666667
25,2157.996032,64739.88096,64739,2157.9666666666667,2158.54592,64756.3776,64756,2158.5333333333333,2160.579584,64817.387520000004,64817,2160.5666666666666,4.026793728607572,2,1,2,1,2.0,3.0,b'SB_36_ShortA.png',2164.6063777286076,64938.19133185823,64938,2164.6
26,2164.6110719999997,64938.33215999999,64938,2164.6,2165.1609599999997,64954.82879999999,64954,2165.133333333333,2167.1946239999997,65015.83871999999,65015,2167.1666666666665,2.7397590249747736,3,2,5,2,2.0,1.0,b'HB_49_LongA.png',2169.9343830249745,65098.031490749236,65098,2169.9333333333334
27,2169.946112,65098.38336,65098,2169.9333333333334,2170.479616,65114.38848,65114,2170.4666666666667,2172.51328,65175.398400000005,65175,2172.5,1.9568662272790789,2,1,2,1,2.0,3.0,b'SB_14_ShortA.png',2174.470146227279,65234.10438681838,65234,2174.4666666666667
28,2174.483456,65234.503679999994,65234,2174.4666666666667,2175.033344,65251.00032,65251,2175.0333333333333,2177.067008,65312.01024,65312,2177.0666666666666,1.9649000494364373,2,2,7,2,2.0,3.0,b'SB_6_ShortA.png',2179.0319080494364,65370.95724148309,65370,2179.0
29,2179.0402559999998,65371.20767999999,65371,2179.0333333333333,2179.5737599999998,65387.212799999994,65387,2179.5666666666666,2181.607424,65448.22271999999,65448,2181.6,5.685792774073889,3,1,5,2,1.0,1.0,b'HB_34_ShortA.png',2187.2932167740737,65618.79650322221,65618,2187.266666666667
30,2187.303936,65619.11808,65619,2187.3,2187.870208,65636.10624,65636,2187.866666666667,2189.903872,65697.11615999999,65697,2189.9,2.518934799807539,1,2,7,2,2.0,3.0,b'NB_20_ShortA.png',2192.4228067998074,65772.68420399423,65772,2192.4
31,2192.429056,65772.87168,65772,2192.4,2192.978944,65789.36832,65789,2192.9666666666667,2195.012608,65850.37824,65850,2195.0,1.7778083840225918,1,1,2,1,2.0,3.0,b'NB_18_ShortA.png',2196.7904163840226,65903.71249152068,65903,2196.766666666667
32,2196.800512,65904.01535999999,65904,2196.8,2197.300224,65919.00672,65919,2197.3,2199.333888,65980.01664,65980,2199.3333333333335,2.5737022991356753,1,1,2,1,2.0,3.0,b'NB_20_LongA.png',2201.907590299136,66057.22770897407,66057,2201.9
33,2201.915392,66057.46175999999,66057,2201.9,2202.515456,66075.46368,66075,2202.5,2204.5491199999997,66136.4736,66136,2204.5333333333333,1.0521861929187253,2,1,2,1,2.0,3.0,b'SB_53_LongA.png',2205.6013061929184,66168.03918578755,66168,2205.6
34,2205.612032,66168.36096,66168,2205.6,2206.129152,66183.87456,66183,2206.1,2208.161792,66244.85376,66244,2208.133333333333,-0.3678261837549144,2,2,7,2,2.0,3.0,b'SB_57_ShortA.png',2207.793965816245,66233.81897448735,66233,2207.766666666667
35,2207.798272,66233.94816,66233,2207.766666666667,2208.331776,66249.95328,66249,2208.3,2210.36544,66310.9632,66310,2210.3333333333335,3.1465946325970435,3,1,5,2,1.0,1.0,b'HB_39_LongA.png',2213.512034632597,66405.3610389779,66405,2213.5
36,2213.5224319999998,66405.67296,66405,2213.5,2214.089728,66422.69184,66422,2214.0666666666666,2216.123392,66483.70176,66483,2216.1,4.2951501031961925,3,1,3,1,2.0,2.0,b'HB_25_ShortA.png',2220.418542103196,66612.55626309589,66612,2220.4
37,2220.422144,66612.66432000001,66612,2220.4,2221.0047999999997,66630.14399999999,66630,2221.0,2223.0384639999997,66691.15392,66691,2223.0333333333333,1.1494442641383102,1,2,7,2,2.0,3.0,b'NB_21_LongA.png',2224.187908264138,66725.63724792414,66725,2224.1666666666665
38,2224.205824,66726.17472000001,66726,2224.2,2224.705536,66741.16608,66741,2224.7,2226.7392,66802.176,66802,2226.733333333333,2.9010701775082453,3,2,5,2,2.0,1.0,b'HB_3_ShortA.png',2229.6402701775082,66889.20810532525,66889,2229.633333333333
39,2229.644288,66889.32863999999,66889,2229.633333333333,2230.177792,66905.33376,66905,2230.1666666666665,2232.210432,66966.31296,66966,2232.2,1.4733331004281354,2,1,2,1,2.0,3.0,b'SB_50_ShortA.png',2233.683765100428,67010.51295301283,67010,2233.6666666666665
40,2233.6931839999997,67010.79551999999,67010,2233.6666666666665,2234.2103039999997,67026.30911999999,67026,2234.2,2236.2439679999998,67087.31903999999,67087,2236.233333333333,-0.4494103452198033,1,2,7,2,2.0,3.0,b'NB_30_LongA.png',2235.79455765478,67073.8367296434,67073,2235.766666666667
41,2235.805696,67074.17087999999,67074,2235.8,2236.306432,67089.19296,67089,2236.3,2238.340096,67150.20288,67150,2238.3333333333335,1.0626990666064557,1,1,3,1,2.0,2.0,b'NB_1_LongA.png',2239.4027950666064,67182.08385199819,67182,2239.4
42,2239.413248,67182.39744,67182,2239.4,2239.896576,67196.89728,67196,2239.866666666667,2241.9302399999997,67257.90719999999,67257,2241.9,2.1035522344582205,3,1,6,2,1.0,2.0,b'HB_54_LongA.png',2244.033792234458,67321.01376703374,67321,2244.0333333333333
43,2244.048896,67321.46687999999,67321,2244.0333333333333,2244.581376,67337.44128,67337,2244.5666666666666,2246.6150399999997,67398.4512,67398,2246.6,3.286912845306688,2,1,2,1,2.0,3.0,b'SB_26_ShortA.png',2249.9019528453064,67497.05858535919,67497,2249.9
44,2249.908224,67497.24672,67497,2249.9,2250.441728,67513.25184,67513,2250.4333333333334,2252.475392,67574.26176,67574,2252.4666666666667,1.109069617629757,2,1,2,1,2.0,3.0,b'SB_46_LongA.png',2253.5844616176296,67607.53384852888,67607,2253.5666666666666
45,2253.5966719999997,67607.90015999999,67607,2253.5666666666666,2254.196736,67625.90208,67625,2254.1666666666665,2256.2304,67686.912,67686,2256.2,2.8197596709655954,1,2,6,2,2.0,2.0,b'NB_28_ShortA.png',2259.0501596709655,67771.50479012897,67771,2259.0333333333333
46,2259.0658559999997,67771.97567999999,67771,2259.0333333333333,2259.5993599999997,67787.98079999999,67787,2259.5666666666666,2261.632,67848.96,67848,2261.6,3.7268280048933775,1,2,6,2,2.0,2.0,b'NB_8_ShortA.png',2265.3588280048934,67960.7648401468,67960,2265.3333333333335
47,2265.3614079999998,67960.84224,67960,2265.3333333333335,2265.843712,67975.31135999999,67975,2265.8333333333335,2267.877376,68036.32128,68036,2267.866666666667,2.397941362801703,2,2,7,2,2.0,3.0,b'SB_44_ShortA.png',2270.2753173628016,68108.25952088405,68108,2270.266666666667
48,2270.280704,68108.42112,68108,2270.266666666667,2270.7968,68123.90400000001,68123,2270.766666666667,2272.830464,68184.91392,68184,2272.8,0.715000984728249,2,1,2,1,2.0,3.0,b'SB_35_LongA.png',2273.5454649847284,68206.36394954185,68206,2273.5333333333333
49,2273.5616,68206.848,68206,2273.5333333333333,2274.095104,68222.85312,68222,2274.0666666666666,2276.128768,68283.86304,68283,2276.1,3.592838730571202,2,1,2,1,2.0,3.0,b'SB_56_ShortA.png',2279.7216067305712,68391.64820191714,68391,2279.7
50,2279.7311999999997,68391.93599999999,68391,2279.7,2280.2483199999997,68407.44959999999,68407,2280.233333333333,2282.28096,68468.4288,68468,2282.266666666667,2.314402244925077,3,2,4,1,1.0,1.0,b'HB_53_LongA.png',2284.595362244925,68537.86086734776,68537,2284.5666666666666
51,2284.607488,68538.22464,68538,2284.6,2285.140992,68554.22976,68554,2285.133333333333,2287.1746559999997,68615.23967999998,68615,2287.1666666666665,2.9716736029199637,1,1,2,1,2.0,3.0,b'NB_2_LongA.png',2290.1463296029196,68704.3898880876,68704,2290.133333333333
52,2290.159616,68704.78848,68704,2290.133333333333,2290.6757119999997,68720.27136,68720,2290.6666666666665,2292.709376,68781.28128,68781,2292.7,1.0627495941971574,1,2,6,2,2.0,2.0,b'NB_6_ShortA.png',2293.772125594197,68813.16376782591,68813,2293.766666666667
53,2293.7825279999997,68813.47584,68813,2293.766666666667,2294.3160319999997,68829.48095999999,68829,2294.3,2296.348672,68890.46016,68890,2296.3333333333335,0.8760522959105401,3,1,6,2,1.0,2.0,b'HB_31_LongA.png',2297.2247242959106,68916.74172887731,68916,2297.2
54,2297.2405759999997,68917.21728,68917,2297.233333333333,2297.7576959999997,68932.73087999999,68932,2297.733333333333,2299.7913599999997,68993.74079999999,68993,2299.766666666667,3.424725009249869,2,2,7,2,2.0,3.0,b'SB_18_ShortA.png',2303.2160850092496,69096.48255027749,69096,2303.2
55,2303.225856,69096.77568,69096,2303.2,2303.75936,69112.78080000001,69112,2303.733333333333,2305.793024,69173.79072,69173,2305.766666666667,1.3239555511863728,2,2,7,2,2.0,3.0,b'SB_51_LongA.png',2307.1169795511864,69213.50938653559,69213,2307.1
56,2307.12832,69213.84959999999,69213,2307.1,2307.694592,69230.83776,69230,2307.6666666666665,2309.728256,69291.84767999999,69291,2309.7,1.639221536655441,3,2,6,2,2.0,2.0,b'HB_51_ShortA.png',2311.3674775366553,69341.02432609966,69341,2311.366666666667
57,2311.3728,69341.18400000001,69341,2311.366666666667,2311.906304,69357.18912,69357,2311.9,2313.9399679999997,69418.19903999999,69418,2313.9333333333334,1.1328932231317594,2,1,2,1,2.0,3.0,b'SB_9_LongA.png',2315.0728612231314,69452.18583669394,69452,2315.0666666666666
58,2315.0755839999997,69452.26752,69452,2315.0666666666666,2315.5763199999997,69467.28959999999,69467,2315.5666666666666,2317.60896,69528.2688,69528,2317.6,3.5475305417667187,3,1,3,1,2.0,2.0,b'HB_22_ShortA.png',2321.1564905417667,69634.694716253,69634,2321.133333333333
59,2321.173504,69635.20512,69635,2321.1666666666665,2321.656832,69649.70496,69649,2321.633333333333,2323.6904959999997,69710.71487999998,69710,2323.6666666666665,2.2336371683104517,1,1,2,1,2.0,3.0,b'NB_25_LongA.png',2325.92413316831,69777.72399504931,69777,2325.9
60,2325.940224,69778.20672,69778,2325.9333333333334,2326.45632,69793.6896,69793,2326.4333333333334,2328.489984,69854.69952,69854,2328.4666666666667,3.118931711686855,2,2,7,2,2.0,3.0,b'SB_59_LongA.png',2331.6089157116867,69948.2674713506,69948,2331.6
61,2331.6193279999998,69948.57983999999,69948,2331.6,2332.1856,69965.568,69965,2332.1666666666665,2334.219264,70026.57792,70026,2334.2,3.234881225371737,3,2,4,1,1.0,1.0,b'HB_24_ShortA.png',2337.4541452253716,70123.62435676115,70123,2337.4333333333334
62,2337.4653439999997,70123.96032,70123,2337.4333333333334,2337.9988479999997,70139.96543999999,70139,2337.9666666666667,2340.0325119999998,70200.97536,70200,2340.0,0.3760836740598279,1,1,3,1,2.0,2.0,b'NB_3_LongA.png',2340.4085956740596,70212.25787022179,70212,2340.4
63,2340.426752,70212.80256,70212,2340.4,2341.009408,70230.28224,70230,2341.0,2343.043072,70291.29216,70291,2343.0333333333333,2.559340714984046,1,2,7,2,2.0,3.0,b'NB_14_ShortA.png',2345.602412714984,70368.07238144951,70368,2345.6
64,2345.61536,70368.4608,70368,2345.6,2346.181632,70385.44896,70385,2346.1666666666665,2348.215296,70446.45887999999,70446,2348.2,2.3503476527262137,3,1,4,1,2.0,1.0,b'HB_40_LongA.png',2350.565643652726,70516.96930958178,70516,2350.5333333333333
65,2350.572544,70517.17632,70517,2350.5666666666666,2351.106048,70533.18144,70533,2351.1,2353.1397119999997,70594.19136,70594,2353.133333333333,5.840464789563157,3,2,4,1,1.0,1.0,b'HB_20_LongA.png',2358.980176789563,70769.40530368689,70769,2358.9666666666667
66,2358.994944,70769.84832,70769,2358.9666666666667,2359.561216,70786.83648,70786,2359.5333333333333,2361.59488,70847.84640000001,70847,2361.5666666666666,2.316840909120856,1,2,5,2,2.0,1.0,b'NB_19_LongA.png',2363.911720909121,70917.35162727363,70917,2363.9
67,2363.91936,70917.5808,70917,2363.9,2364.469248,70934.07744,70934,2364.4666666666667,2366.502912,70995.08736,70995,2366.5,4.641920410495004,3,2,5,2,2.0,1.0,b'HB_1_ShortA.png',2371.144832410495,71134.34497231485,71134,2371.133333333333
68,2371.15904,71134.7712,71134,2371.133333333333,2371.692544,71150.77632,71150,2371.6666666666665,2373.726208,71211.78624,71211,2373.7,3.2149764583105025,2,1,2,1,2.0,3.0,b'SB_4_LongA.png',2376.9411844583105,71308.23553374932,71308,2376.9333333333334
69,2376.955904,71308.67712,71308,2376.9333333333334,2377.489408,71324.68224,71324,2377.4666666666667,2379.523072,71385.69216,71385,2379.5,-0.18716869455374763,1,1,2,1,2.0,3.0,b'NB_14_LongA.png',2379.335903305446,71380.07709916339,71380,2379.3333333333335
70,2379.336704,71380.10111999999,71380,2379.3333333333335,2379.886592,71396.59775999999,71396,2379.866666666667,2381.920256,71457.60768,71457,2381.9,1.3808737815447785,1,1,2,1,2.0,3.0,b'NB_10_LongA.png',2383.3011297815447,71499.03389344634,71499,2383.3
71,2383.316992,71499.50976,71499,2383.3,2383.816704,71514.50112,71514,2383.8,2385.850368,71575.51104,71575,2385.8333333333335,3.89857441097638,1,1,2,1,2.0,3.0,b'NB_29_ShortA.png',2389.7489424109763,71692.4682723293,71692,2389.733333333333
72,2389.753856,71692.61567999999,71692,2389.733333333333,2390.321152,71709.63456,71709,2390.3,2392.354816,71770.64448,71770,2392.3333333333335,3.066201740827637,2,1,2,1,2.0,3.0,b'SB_7_ShortA.png',2395.4210177408277,71862.63053222484,71862,2395.4
73,2395.428864,71862.86592,71862,2395.4,2395.94496,71878.34879999999,71878,2395.9333333333334,2397.978624,71939.35871999999,71939,2397.9666666666667,-0.8053183102410912,1,2,7,2,2.0,3.0,b'NB_7_LongA.png',2397.1733056897588,71915.19917069277,71915,2397.1666666666665
74,2397.18912,71915.6736,71915,2397.1666666666665,2397.7216,71931.648,71931,2397.7,2399.755264,71992.65792,71992,2399.733333333333,0.9349372744363791,1,1,2,1,2.0,3.0,b'NB_21_ShortA.png',2400.6902012744363,72020.70603823308,72020,2400.6666666666665
75,2400.703488,72021.10464,72021,2400.7,2401.236992,72037.10976,72037,2401.233333333333,2403.2706559999997,72098.11967999999,72098,2403.266666666667,-0.24884113465486735,1,1,2,1,2.0,3.0,b'NB_15_ShortA.png',2403.021814865345,72090.65444596035,72090,2403.0
76,2403.024896,72090.74687999999,72090,2403.0,2403.5584,72106.752,72106,2403.5333333333333,2405.592064,72167.76192,72167,2405.5666666666666,2.19616804035968,2,1,2,1,2.0,3.0,b'SB_13_LongA.png',2407.7882320403596,72233.64696121079,72233,2407.766666666667
77,2407.793664,72233.80992,72233,2407.766666666667,2408.359936,72250.79808,72250,2408.3333333333335,2410.3936,72311.80799999999,72311,2410.366666666667,2.476628336054546,2,2,7,2,2.0,3.0,b'SB_11_LongA.png',2412.8702283360544,72386.10685008163,72386,2412.866666666667
78,2412.875776,72386.27328,72386,2412.866666666667,2413.3918719999997,72401.75615999999,72401,2413.366666666667,2415.4255359999997,72462.76607999999,72462,2415.4,2.629307213915581,2,1,2,1,2.0,3.0,b'SB_21_LongA.png',2418.0548432139153,72541.64529641745,72541,2418.0333333333333
79,2418.061312,72541.83936,72541,2418.0333333333333,2418.561024,72556.83072,72556,2418.5333333333333,2420.5946879999997,72617.84064,72617,2420.5666666666666,1.7478278287399007,2,2,6,2,2.0,2.0,b'SB_20_ShortA.png',2422.3425158287396,72670.27547486218,72670,2422.3333333333335
80,2422.347776,72670.43328,72670,2422.3333333333335,2422.914048,72687.42144,72687,2422.9,2424.9477119999997,72748.43135999999,72748,2424.9333333333334,0.0,1,1,1,1,2.0,0.0,b'NB_30_ShortA.png',2424.9477119999997,72748.43135999999,72748,2424.9333333333334
81,2425.388032,72761.64095999999,72761,2425.366666666667,2425.93792,72778.1376,72778,2425.9333333333334,2427.971584,72839.14752,72839,2427.9666666666667,2.5262511653800175,3,2,5,2,2.0,1.0,b'HB_17_LongA.png',2430.49783516538,72914.9350549614,72914,2430.4666666666667
82,2430.5152,72915.45599999999,72915,2430.5,2431.0476799999997,72931.43039999998,72931,2431.0333333333333,2433.0813439999997,72992.44032,72992,2433.0666666666666,2.394687381789936,3,2,5,2,2.0,1.0,b'HB_6_LongA.png',2435.4760313817897,73064.28094145369,73064,2435.4666666666667
83,2435.479552,73064.38656,73064,2435.4666666666667,2435.9966719999998,73079.90015999999,73079,2435.9666666666667,2438.0293119999997,73140.87935999999,73140,2438.0,4.088807386766803,2,1,3,1,2.0,2.0,b'SB_41_LongA.png',2442.1181193867665,73263.543581603,73263,2442.1
84,2442.1253119999997,73263.75936,73263,2442.1,2442.6915839999997,73280.74751999999,73280,2442.6666666666665,2444.7252479999997,73341.75743999999,73341,2444.7,1.2534199224123768,2,2,7,2,2.0,3.0,b'SB_1_ShortA.png',2445.978667922412,73379.36003767236,73379,2445.9666666666667
85,2445.986816,73379.60448000001,73379,2445.9666666666667,2446.52032,73395.6096,73395,2446.5,2448.5539839999997,73456.61952,73456,2448.5333333333333,3.3522930030785574,3,1,6,2,1.0,2.0,b'HB_50_ShortA.png',2451.9062770030782,73557.18831009234,73557,2451.9
86,2451.92192,73557.65759999999,73557,2451.9,2452.489216,73574.67648,73574,2452.4666666666667,2454.52288,73635.6864,73635,2454.5,-0.35456200624912526,1,2,6,2,2.0,2.0,b'NB_22_LongA.png',2454.168317993751,73625.04953981252,73625,2454.1666666666665
87,2454.1726719999997,73625.18015999999,73625,2454.1666666666665,2454.6897919999997,73640.69376,73640,2454.6666666666665,2456.722432,73701.67296,73701,2456.7,2.2604759620571713,1,2,6,2,2.0,2.0,b'NB_22_ShortA.png',2458.982907962057,73769.48723886172,73769,2458.9666666666667
88,2458.99264,73769.7792,73769,2458.9666666666667,2459.558912,73786.76736,73786,2459.5333333333333,2461.592576,73847.77728,73847,2461.5666666666666,0.5729724908196658,1,1,2,1,2.0,3.0,b'NB_26_LongA.png',2462.1655484908197,73864.96645472459,73864,2462.133333333333
89,2462.168064,73865.04192,73865,2462.1666666666665,2462.717952,73881.53856,73881,2462.7,2464.751616,73942.54848,73942,2464.733333333333,1.4452217366365403,2,2,7,2,2.0,3.0,b'SB_10_shortA.png',2466.1968377366366,73985.9051320991,73985,2466.1666666666665
90,2466.205696,73986.17088,73986,2466.2,2466.771968,74003.15904,74003,2466.766666666667,2468.805632,74064.16896,74064,2468.8,2.1988272062517353,2,1,2,1,2.0,3.0,b'SB_15_ShortA.png',2471.004459206252,74130.13377618755,74130,2471.0
91,2471.020544,74130.61632,74130,2471.0,2471.554048,74146.62144,74146,2471.5333333333333,2473.587712,74207.63136,74207,2473.5666666666666,1.9100305778647453,1,2,6,2,2.0,2.0,b'NB_23_LongA.png',2475.4977425778648,74264.93227733595,74264,2475.4666666666667
92,2475.505664,74265.16992,74265,2475.5,2476.055552,74281.66656,74281,2476.0333333333333,2478.0881919999997,74342.64575999998,74342,2478.0666666666666,1.9294157089989312,3,2,6,2,2.0,2.0,b'HB_26_LongA.png',2480.0176077089986,74400.52823126996,74400,2480.0
93,2480.028672,74400.86016,74400,2480.0,2480.595968,74417.87904,74417,2480.5666666666666,2482.6296319999997,74478.88896,74478,2482.6,2.25001557140331,2,2,7,2,2.0,3.0,b'SB_23_LongA.png',2484.879647571403,74546.38942714209,74546,2484.866666666667
94,2484.8896,74546.688,74546,2484.866666666667,2485.423104,74562.69312,74562,2485.4,2487.456768,74623.70304,74623,2487.4333333333334,3.8454530514436556,3,2,6,2,2.0,2.0,b'HB_16_LongA.png',2491.3022210514437,74739.0666315433,74739,2491.3
95,2491.317248,74739.51744,74739,2491.3,2491.867136,74756.01408,74756,2491.866666666667,2493.9008,74817.02399999999,74817,2493.9,2.5976423069282646,1,2,7,2,2.0,3.0,b'NB_6_LongA.png',2496.498442306928,74894.95326920785,74894,2496.4666666666667
96,2496.5058559999998,74895.17567999999,74895,2496.5,2497.073152,74912.19456,74912,2497.0666666666666,2499.105792,74973.17375999999,74973,2499.1,1.3674772791873693,1,1,2,1,2.0,3.0,b'NB_13_ShortA.png',2500.473269279187,75014.19807837562,75014,2500.4666666666667
97,2500.482048,75014.46144,75014,2500.4666666666667,2500.9817599999997,75029.45279999998,75029,2500.9666666666667,2503.0154239999997,75090.46272,75090,2503.0,2.843245391452456,3,2,3,1,1.0,2.0,b'HB_43_ShortA.png',2505.858669391452,75175.76008174356,75175,2505.8333333333335
98,2505.892864,75176.78592,75176,2505.866666666667,2506.459136,75193.77408,75193,2506.4333333333334,2508.4928,75254.784,75254,2508.4666666666667,3.146338870159525,3,1,4,1,2.0,1.0,b'HB_18_ShortA.png',2511.6391388701595,75349.17416610479,75349,2511.633333333333
99,2511.650816,75349.52448,75349,2511.633333333333,2512.217088,75366.51264,75366,2512.2,2514.250752,75427.52256,75427,2514.233333333333,1.1066395077614288,2,2,7,2,2.0,3.0,b'SB_48_LongA.png',2515.3573915077613,75460.72174523285,75460,2515.3333333333335
100,2515.367936,75461.03808,75461,2515.366666666667,2515.90144,75477.0432,75477,2515.9,2517.9351039999997,75538.05312,75538,2517.9333333333334,0.9155204620815312,2,2,7,2,2.0,3.0,b'SB_52_ShortA.png',2518.850624462081,75565.51873386244,75565,2518.8333333333335
101,2518.870016,75566.10048,75566,2518.866666666667,2519.436288,75583.08864,75583,2519.4333333333334,2521.469952,75644.09856,75644,2521.4666666666667,2.5942733333731667,1,1,2,1,2.0,3.0,b'NB_12_LongA.png',2524.064225333373,75721.9267600012,75721,2524.0333333333333
102,2524.079104,75722.37312,75722,2524.0666666666666,2524.628992,75738.86976,75738,2524.6,2526.662656,75799.87968,75799,2526.633333333333,1.449532409234962,2,2,7,2,2.0,3.0,b'SB_22_ShortA.png',2528.112188409235,75843.36565227705,75843,2528.1
103,2528.116736,75843.50208,75843,2528.1,2528.632832,75858.98495999999,75858,2528.6,2530.666496,75919.99488,75919,2530.633333333333,1.5094625083715982,1,1,2,1,2.0,3.0,b'NB_9_ShortA.png',2532.1759585083714,75965.27875525114,75965,2532.1666666666665
104,2532.1881599999997,75965.6448,75965,2532.1666666666665,2532.737024,75982.11072,75982,2532.733333333333,2534.770688,76043.12064000001,76043,2534.766666666667,1.1466113661276722,3,1,3,1,2.0,2.0,b'HB_23_LongA.png',2535.9172993661277,76077.51898098383,76077,2535.9
105,2535.924736,76077.74208,76077,2535.9,2536.474624,76094.23872,76094,2536.4666666666667,2538.508288,76155.24864,76155,2538.5,1.8079778543760767,2,2,7,2,2.0,3.0,b'SB_31_LongA.png',2540.316265854376,76209.48797563129,76209,2540.3
106,2540.3248639999997,76209.74591999999,76209,2540.3,2540.808192,76224.24576,76224,2540.8,2542.841856,76285.25568,76285,2542.8333333333335,1.4107270886011065,1,2,5,2,2.0,1.0,b'NB_5_ShortA.png',2544.252583088601,76327.57749265803,76327,2544.233333333333
107,2544.2549759999997,76327.64928,76327,2544.233333333333,2544.8048639999997,76344.14592,76344,2544.8,2546.8385279999998,76405.15583999999,76405,2546.8333333333335,2.1471488627830695,2,2,7,2,2.0,3.0,b'SB_8_LongA.png',2548.985676862783,76469.57030588349,76469,2548.9666666666667
108,2549.00224,76470.06719999999,76470,2549.0,2549.51936,76485.5808,76485,2549.5,2551.5519999999997,76546.56,76546,2551.5333333333333,2.74232771026891,3,2,4,1,1.0,1.0,b'HB_5_ShortA.png',2554.2943277102686,76628.82983130806,76628,2554.266666666667
109,2554.310656,76629.31968,76629,2554.3,2554.84416,76645.3248,76645,2554.8333333333335,2556.8778239999997,76706.33471999998,76706,2556.866666666667,0.8938691145790472,2,2,7,2,2.0,3.0,b'SB_5_LongA.png',2557.7716931145787,76733.15079343737,76733,2557.766666666667
110,2557.784064,76733.52192,76733,2557.766666666667,2558.316544,76749.49631999999,76749,2558.3,2560.350208,76810.50623999999,76810,2560.3333333333335,2.9490663687029155,3,2,5,2,2.0,1.0,b'HB_32_ShortA.png',2563.2992743687028,76898.97823106108,76898,2563.266666666667
111,2563.308544,76899.25632,76899,2563.3,2563.808256,76914.24768,76914,2563.8,2565.84192,76975.2576,76975,2565.8333333333335,1.4762024211690914,2,1,4,1,2.0,1.0,b'SB_58_ShortA.png',2567.318122421169,77019.54367263507,77019,2567.3
112,2567.322624,77019.67872,77019,2567.3,2567.906304,77037.18912,77037,2567.9,2569.938944,77098.16832,77098,2569.9333333333334,0.9436341678515419,3,2,5,2,2.0,1.0,b'HB_2_LongA.png',2570.8825781678515,77126.47734503554,77126,2570.866666666667
113,2570.899456,77126.98368,77126,2570.866666666667,2571.43296,77142.9888,77142,2571.4,2573.4666239999997,77203.99871999999,77203,2573.4333333333334,2.2251740484721267,1,2,7,2,2.0,3.0,b'NB_16_ShortA.png',2575.691798048472,77270.75394145415,77270,2575.6666666666665
114,2575.6989439999998,77270.96831999999,77270,2575.6666666666665,2576.198656,77285.95968,77285,2576.1666666666665,2578.231296,77346.93888,77346,2578.2,3.0493053216837325,1,2,6,2,2.0,2.0,b'NB_19_ShortA.png',2581.2806013216837,77438.41803965051,77438,2581.266666666667
115,2581.2910079999997,77438.73023999999,77438,2581.266666666667,2581.874688,77456.24064,77456,2581.866666666667,2583.908352,77517.25056,77517,2583.9,1.7038711878817594,2,2,6,2,2.0,2.0,b'SB_17_LongA.png',2585.6122231878817,77568.36669563645,77568,2585.6
116,2585.6256,77568.768,77568,2585.6,2586.225664,77586.76992,77586,2586.2,2588.258304,77647.74912,77647,2588.233333333333,1.1248231059371392,3,2,6,2,2.0,2.0,b'HB_12_ShortA.png',2589.383127105937,77681.49381317811,77681,2589.366666666667
117,2589.387776,77681.63328,77681,2589.366666666667,2589.937664,77698.12992,77698,2589.9333333333334,2591.971328,77759.13984,77759,2591.9666666666667,1.2373986052989494,3,2,5,2,2.0,1.0,b'HB_46_LongA.png',2593.208726605299,77796.26179815897,77796,2593.2
118,2593.220608,77796.61824,77796,2593.2,2593.72032,77811.6096,77811,2593.7,2595.753984,77872.61952,77872,2595.733333333333,1.3400831451458544,1,1,4,1,2.0,1.0,b'NB_8_LongA.png',2597.094067145146,77912.82201435437,77912,2597.0666666666666
119,2597.107712,77913.23136,77913,2597.1,2597.673984,77930.21952,77930,2597.6666666666665,2599.707648,77991.22944,77991,2599.7,1.123030729932907,2,2,7,2,2.0,3.0,b'SB_54_LongA.png',2600.830678729933,78024.920361898,78024,2600.8
120,2600.848384,78025.45152,78025,2600.8333333333335,2601.414656,78042.43968,78042,2601.4,2603.44832,78103.44959999999,78103,2603.4333333333334,3.4262918553831696,3,1,3,1,2.0,2.0,b'HB_55_LongA.png',2606.874611855383,78206.2383556615,78206,2606.866666666667
121,2606.8920319999997,78206.76095999999,78206,2606.866666666667,2607.4419199999998,78223.2576,78223,2607.4333333333334,2609.475584,78284.26752,78284,2609.4666666666667,3.4069481280871514,3,1,3,1,2.0,2.0,b'HB_56_LongA.png',2612.882532128087,78386.4759638426,78386,2612.866666666667
122,2612.8977919999998,78386.93375999999,78386,2612.866666666667,2613.38112,78401.4336,78401,2613.366666666667,2615.414784,78462.44352,78462,2615.4,3.9120906414659657,1,1,2,1,2.0,3.0,b'NB_12_ShortA.png',2619.326874641466,78579.80623924398,78579,2619.3
123,2619.331584,78579.94752,78579,2619.3,2619.9152639999998,78597.45791999999,78597,2619.9,2621.948928,78658.46784,78658,2621.9333333333334,0.1747870442036401,1,2,7,2,2.0,3.0,b'NB_17_ShortA.png',2622.1237150442034,78663.7114513261,78663,2622.1
124,2622.129152,78663.87456,78663,2622.1,2622.7292159999997,78681.87647999999,78681,2622.7,2624.7628799999998,78742.88639999999,78742,2624.733333333333,3.1462369783143913,2,2,7,2,2.0,3.0,b'SB_42_ShortA.png',2627.909116978314,78837.27350934943,78837,2627.9
125,2627.915776,78837.47327999999,78837,2627.9,2628.44928,78853.47839999999,78853,2628.4333333333334,2630.482944,78914.48831999999,78914,2630.4666666666667,0.44489320129150656,3,1,6,2,1.0,2.0,b'HB_35_ShortA.png',2630.9278372012914,78927.83511603874,78927,2630.9
126,2630.93248,78927.97439999999,78927,2630.9,2631.5161599999997,78945.48479999999,78945,2631.5,2633.5488,79006.464,79006,2633.5333333333333,2.7043477346373948,3,1,6,2,1.0,2.0,b'HB_7_ShortA.png',2636.2531477346374,79087.59443203913,79087,2636.233333333333
127,2636.255232,79087.65696,79087,2636.233333333333,2636.772352,79103.17056,79103,2636.766666666667,2638.804992,79164.14976,79164,2638.8,0.637299274484576,3,2,2,1,1.0,3.0,b'HB_37_LongA.png',2639.4422912744844,79183.26873823453,79183,2639.4333333333334
128,2639.455232,79183.65696,79183,2639.4333333333334,2640.00512,79200.15359999999,79200,2640.0,2642.0377599999997,79261.13279999999,79261,2642.0333333333333,2.5840752249114303,3,1,5,2,1.0,1.0,b'HB_44_ShortA.png',2644.621835224911,79338.65505674733,79338,2644.6
129,2644.631552,79338.94656,79338,2644.6,2645.231616,79356.94848,79356,2645.2,2647.26528,79417.9584,79417,2647.233333333333,3.0307802741390333,3,2,3,1,1.0,2.0,b'HB_28_ShortA.png',2650.296060274139,79508.88180822418,79508,2650.266666666667
130,2650.300416,79509.01248,79509,2650.3,2650.866688,79526.00064,79526,2650.866666666667,2652.9003519999997,79587.01056,79587,2652.9,0.22780774586044572,3,1,2,1,2.0,3.0,b'HB_47_ShortA.png',2653.12815974586,79593.8447923758,79593,2653.1
131,2653.130752,79593.92256,79593,2653.1,2653.630464,79608.91391999999,79608,2653.6,2655.664128,79669.92384,79669,2655.633333333333,-0.9631779898536479,1,1,4,1,2.0,1.0,b'NB_27_ShortA.png',2654.7009500101462,79641.02850030438,79641,2654.7
132,2654.7128319999997,79641.38496,79641,2654.7,2655.280128,79658.40384,79658,2655.266666666667,2657.313792,79719.41376,79719,2657.3,4.133021005570754,3,2,3,1,1.0,2.0,b'HB_4_LongA.png',2661.4468130055707,79843.40439016712,79843,2661.4333333333334
133,2661.46304,79843.8912,79843,2661.4333333333334,2661.963776,79858.91328000001,79858,2661.9333333333334,2663.996416,79919.89248,79919,2663.9666666666667,2.4782857266181963,3,2,6,2,2.0,2.0,b'HB_59_ShortA.png',2666.474701726618,79994.24105179854,79994,2666.4666666666667
134,2666.477568,79994.32703999999,79994,2666.4666666666667,2666.993664,80009.80992,80009,2666.9666666666667,2669.0273279999997,80070.81984,80070,2669.0,2.0745265087098232,1,2,6,2,2.0,2.0,b'NB_7_ShortA.png',2671.1018545087095,80133.05563526129,80133,2671.1
135,2671.105024,80133.15072,80133,2671.1,2671.5883519999998,80147.65056,80147,2671.5666666666666,2673.622016,80208.66047999999,80208,2673.6,2.6755609037381873,2,2,7,2,2.0,3.0,b'SB_38_LongA.png',2676.297576903738,80288.92730711214,80288,2676.266666666667
136,2676.30592,80289.1776,80289,2676.3,2676.855808,80305.67424,80305,2676.8333333333335,2678.889472,80366.68415999999,80366,2678.866666666667,1.1317529901484704,3,2,2,1,1.0,3.0,b'HB_38_ShortA.png',2680.0212249901483,80400.63674970446,80400,2680.0
137,2680.0271359999997,80400.81408,80400,2680.0,2680.6097919999997,80418.29375999999,80418,2680.6,2682.643456,80479.30368,80479,2682.633333333333,-1.2170141759975195,1,1,2,1,2.0,3.0,b'NB_23_ShortA.png',2681.4264418240023,80442.79325472006,80442,2681.4
138,2681.435136,80443.05408,80443,2681.4333333333334,2681.985024,80459.55072,80459,2681.9666666666667,2684.0186879999997,80520.56064,80520,2684.0,5.442415373262975,3,1,3,1,2.0,2.0,b'HB_13_LongA.png',2689.4611033732626,80683.83310119787,80683,2689.4333333333334
139,2689.4714879999997,80684.14463999998,80684,2689.4666666666667,2690.071552,80702.14656,80702,2690.0666666666666,2692.105216,80763.15648,80763,2692.1,4.8286686401970655,3,2,5,2,2.0,1.0,b'HB_30_ShortA.png',2696.933884640197,80908.01653920591,80908,2696.9333333333334
140,2696.9507839999997,80908.52351999999,80908,2696.9333333333334,2697.45152,80923.5456,80923,2697.4333333333334,2699.4851839999997,80984.55552,80984,2699.4666666666667,3.0134008823042677,3,2,3,1,1.0,2.0,b'HB_27_LongA.png',2702.498584882304,81074.95754646912,81074,2702.4666666666667
141,2702.507008,81075.21024,81075,2702.5,2703.07328,81092.19840000001,81092,2703.0666666666666,2705.1069439999997,81153.20831999999,81153,2705.1,-1.9620677680509289,1,2,6,2,2.0,2.0,b'NB_10_ShortA.png',2703.1448762319487,81094.34628695846,81094,2703.133333333333
142,2703.1521279999997,81094.56383999999,81094,2703.133333333333,2703.7183999999997,81111.552,81111,2703.7,2705.752064,81172.56192,81172,2705.733333333333,1.5734339028963404,1,1,2,1,2.0,3.0,b'NB_4_ShortA.png',2707.325497902896,81219.76493708689,81219,2707.3
143,2707.3361919999998,81220.08575999999,81220,2707.3333333333335,2707.8533119999997,81235.59936,81235,2707.8333333333335,2709.885952,81296.57856000001,81296,2709.866666666667,1.8269249269669672,2,2,6,2,2.0,2.0,b'SB_24_ShortA.png',2711.712876926967,81351.386307809,81351,2711.7
144,2711.72096,81351.6288,81351,2711.7,2712.2872319999997,81368.61695999998,81368,2712.266666666667,2714.3208959999997,81429.62688,81429,2714.3,3.726363609661348,2,1,3,1,2.0,2.0,b'SB_2_LongA.png',2718.047259609661,81541.41778828984,81541,2718.0333333333333
145,2718.0584959999996,81541.75488,81541,2718.0333333333333,2718.625792,81558.77376,81558,2718.6,2720.659456,81619.78368,81619,2720.633333333333,2.326594704354193,3,2,2,1,1.0,3.0,b'HB_14_ShortA.png',2722.986050704354,81689.58152113062,81689,2722.9666666666667
146,2723.001344,81690.04032,81690,2723.0,2723.5184639999998,81705.55391999999,81705,2723.5,2725.57568,81767.2704,81767,2725.5666666666666,1.9306938277973131,1,2,3,1,1.0,2.0,b'NB_11_ShortA.png',2727.5063738277972,81825.19121483392,81825,2727.5
147,2727.5100159999997,81825.30047999999,81825,2727.5,2728.026112,81840.78336,81840,2728.0,2730.059776,81901.79328,81901,2730.0333333333333,3.307863103699674,2,2,4,1,1.0,1.0,b'SB_32_ShortA.png',2733.3676391036997,82001.02917311099,82001,2733.366666666667
148,2733.380608,82001.41824,82001,2733.366666666667,2733.94688,82018.40639999999,82018,2733.9333333333334,2735.980544,82079.41632,82079,2735.9666666666667,2.03424260095926,2,1,7,2,1.0,3.0,b'SB_45_ShortA.png',2738.0147866009593,82140.44359802878,82140,2738.0
149,2738.023424,82140.70272,82140,2738.0,2738.540544,82156.21631999999,82156,2738.5333333333333,2740.573184,82217.19552,82217,2740.5666666666666,3.737267689739838,3,1,4,1,2.0,1.0,b'HB_48_ShortA.png',2744.3104516897397,82329.3135506922,82329,2744.3
150,2744.329216,82329.87648,82329,2744.3,2744.845312,82345.35936,82345,2744.8333333333335,2746.878976,82406.36928,82406,2746.866666666667,3.177982418413194,2,1,6,2,1.0,2.0,b'SB_39_ShortA.png',2750.056958418413,82501.7087525524,82501,2750.0333333333333
151,2750.067712,82502.03136,82502,2750.0666666666666,2750.567424,82517.02272,82517,2750.5666666666666,2752.601088,82578.03263999999,82578,2752.6,3.607227492930633,3,1,4,1,2.0,1.0,b'HB_60_LongA.png',2756.2083154929305,82686.24946478792,82686,2756.2
152,2756.222976,82686.68928,82686,2756.2,2756.789248,82703.67744,82703,2756.766666666667,2758.822912,82764.68736,82764,2758.8,-0.3109098478098531,3,1,5,2,1.0,1.0,b'HB_8_ShortA.png',2758.5120021521902,82755.36006456571,82755,2758.5
153,2758.524928,82755.74784,82755,2758.5,2759.058432,82771.75296,82771,2759.0333333333333,2761.092096,82832.76288,82832,2761.0666666666666,1.9544619178900575,2,2,7,2,2.0,3.0,b'SB_25_LongA.png',2763.04655791789,82891.39673753669,82891,2763.0333333333333
154,2763.04896,82891.4688,82891,2763.0333333333333,2763.582464,82907.47392,82907,2763.5666666666666,2765.6161279999997,82968.48383999999,82968,2765.6,1.702309693357165,2,1,7,2,1.0,3.0,b'SB_40_ShortA.png',2767.318437693357,83019.5531308007,83019,2767.3
155,2767.333376,83020.00128,83020,2767.3333333333335,2767.883264,83036.49792,83036,2767.866666666667,2769.916928,83097.50784,83097,2769.9,1.2414244560786756,1,1,7,2,1.0,3.0,b'NB_17_LongA.png',2771.158352456079,83134.75057368237,83134,2771.133333333333
156,2771.1703039999998,83135.10912,83135,2771.1666666666665,2771.652608,83149.57824,83149,2771.633333333333,2773.686272,83210.58816,83210,2773.6666666666665,1.4755761534802332,3,2,7,2,2.0,3.0,b'HB_42_LongA.png',2775.16184815348,83254.8554446044,83254,2775.133333333333
157,2775.176192,83255.28576,83255,2775.1666666666665,2775.6759039999997,83270.27711999998,83270,2775.6666666666665,2777.7095679999998,83331.28704,83331,2777.7,1.317138584890472,1,2,2,1,1.0,3.0,b'NB_4_LongA.png',2779.0267065848902,83370.80119754671,83370,2779.0
158,2779.041792,83371.25375999999,83371,2779.0333333333333,2779.6090879999997,83388.27264,83388,2779.6,2781.6427519999997,83449.28255999999,83449,2781.633333333333,2.3703925115346465,1,2,7,2,2.0,3.0,b'NB_29_LongA.png',2784.0131445115344,83520.39433534603,83520,2784.0
159,2784.024576,83520.73728,83520,2784.0,2784.524288,83535.72864,83535,2784.5,2786.556928,83596.70784,83596,2786.5333333333333,1.165806246698594,1,1,7,2,1.0,3.0,b'NB_28_LongA.png',2787.7227342466986,83631.68202740095,83631,2787.7
160,2787.7376,83632.128,83632,2787.733333333333,2788.287488,83648.62464,83648,2788.266666666667,2790.321152,83709.63456,83709,2790.3,1.3358827286074302,2,1,2,1,2.0,3.0,b'SB_16_ShortA.png',2791.6570347286074,83749.71104185822,83749,2791.633333333333
161,2791.667712,83750.03136,83750,2791.6666666666665,2792.1510399999997,83764.5312,83764,2792.133333333333,2794.184704,83825.54112,83825,2794.1666666666665,1.9362131250218226,1,1,7,2,1.0,3.0,b'NB_18_LongA.png',2796.1209171250216,83883.62751375065,83883,2796.1
162,2796.131328,83883.93983999999,83883,2796.1,2796.681216,83900.43648,83900,2796.6666666666665,2798.71488,83961.4464,83961,2798.7,1.2411911274898557,1,1,2,1,2.0,3.0,b'NB_2_ShortA.png',2799.95607112749,83998.6821338247,83998,2799.9333333333334
163,2799.96416,83998.9248,83998,2799.9333333333334,2800.464896,84013.94688,84013,2800.4333333333334,2802.49856,84074.9568,84074,2802.4666666666667,1.156715037959657,1,1,7,2,1.0,3.0,b'NB_1_ShortA.png',2803.6552750379597,84109.65825113878,84109,2803.633333333333
164,2803.6577279999997,84109.73184,84109,2803.633333333333,2804.241408,84127.24223999999,84127,2804.233333333333,2806.275072,84188.25216,84188,2806.266666666667,0.850335414721485,3,2,7,2,2.0,3.0,b'HB_41_ShortA.png',2807.1254074147214,84213.76222244164,84213,2807.1
165,2807.1423999999997,84214.272,84214,2807.133333333333,2807.625728,84228.77184,84228,2807.6,2809.659392,84289.78176,84289,2809.633333333333,1.9436031957989144,3,2,3,1,1.0,2.0,b'HB_10_ShortA.png',2811.602995195799,84348.08985587397,84348,2811.6
166,2811.60704,84348.21119999999,84348,2811.6,2812.140544,84364.21631999999,84364,2812.133333333333,2814.174208,84425.22624,84425,2814.1666666666665,3.8697481158064875,3,2,6,2,2.0,2.0,b'HB_45_LongA.png',2818.0439561158064,84541.3186834742,84541,2818.0333333333333
167,2818.0510719999997,84541.53215999999,84541,2818.0333333333333,2818.617344,84558.52032,84558,2818.6,2820.651008,84619.53024,84619,2820.633333333333,0.7805941808192074,3,1,7,2,1.0,3.0,b'HB_52_LongA.png',2821.431602180819,84642.94806542457,84642,2821.4
168,2821.445632,84643.36895999999,84643,2821.4333333333334,2821.9617279999998,84658.85183999999,84658,2821.9333333333334,2823.995392,84719.86176,84719,2823.9666666666667,2.0334956843867076,3,2,3,1,1.0,2.0,b'HB_57_LongA.png',2826.0288876843865,84780.8666305316,84780,2826.0
169,2826.046464,84781.39392,84781,2826.0333333333333,2826.546176,84796.38527999999,84796,2826.5333333333333,2828.57984,84857.3952,84857,2828.5666666666666,4.047320935190783,1,2,7,2,2.0,3.0,b'NB_16_LongA.png',2832.6271609351907,84978.81482805572,84978,2832.6
170,2832.6451199999997,84979.35359999999,84979,2832.633333333333,2833.1622399999997,84994.8672,84994,2833.133333333333,2835.1959039999997,85055.87711999999,85055,2835.1666666666665,3.356224749458761,3,2,6,2,2.0,2.0,b'HB_58_LongA.png',2838.5521287494585,85156.56386248376,85156,2838.5333333333333
171,2838.564864,85156.94592,85156,2838.5333333333333,2839.114752,85173.44256,85173,2839.1,2841.148416,85234.45248,85234,2841.133333333333,3.4820084806519844,2,2,5,2,2.0,1.0,b'SB_33_LongA.png',2844.630424480652,85338.91273441956,85338,2844.6
172,2844.63616,85339.0848,85339,2844.633333333333,2845.186048,85355.58144,85355,2845.1666666666665,2847.219712,85416.59136,85416,2847.2,4.214486457586645,1,2,4,1,1.0,1.0,b'NB_5_LongA.png',2851.4341984575867,85543.0259537276,85543,2851.4333333333334
173,2851.444736,85543.34208,85543,2851.4333333333334,2852.011008,85560.33024,85560,2852.0,2854.044672,85621.34015999999,85621,2854.0333333333333,-1.0012405907164066,3,2,5,2,2.0,1.0,b'HB_33_ShortA.png',2853.0434314092836,85591.3029422785,85591,2853.0333333333333
174,2853.051392,85591.54176,85591,2853.0333333333333,2853.584896,85607.54688,85607,2853.5666666666666,2855.61856,85668.55679999999,85668,2855.6,4.319615552974483,3,2,7,2,2.0,3.0,b'HB_15_LongA.png',2859.9381755529744,85798.14526658923,85798,2859.9333333333334
175,2859.9511039999998,85798.53312,85798,2859.9333333333334,2860.4518399999997,85813.55519999999,85813,2860.4333333333334,2862.48448,85874.5344,85874,2862.4666666666667,3.686998534366012,2,2,6,2,2.0,2.0,b'SB_29_LongA.png',2866.171478534366,85985.14435603099,85985,2866.1666666666665
176,2866.18624,85985.5872,85985,2866.1666666666665,2866.736128,86002.08384,86002,2866.733333333333,2868.768768,86063.06304,86063,2868.766666666667,3.2231105177293102,2,1,6,2,1.0,2.0,b'SB_60_ShortA.png',2871.991878517729,86159.75635553188,86159,2871.9666666666667
177,2872.003584,86160.10752,86160,2872.0,2872.569856,86177.09568,86177,2872.5666666666666,2874.6035199999997,86238.1056,86238,2874.6,2.0349461719474675,2,2,7,2,2.0,3.0,b'SB_55_ShortA.png',2876.638466171947,86299.15398515841,86299,2876.633333333333
178,2876.644352,86299.33055999999,86299,2876.633333333333,2877.227008,86316.81023999999,86316,2877.2,2879.261696,86377.85088,86377,2879.233333333333,2.016159732012511,1,1,4,1,2.0,1.0,b'NB_11_LongA.png',2881.2778557320125,86438.33567196038,86438,2881.266666666667
179,2881.297408,86438.92224,86438,2881.266666666667,2881.856512,86455.69536,86455,2881.8333333333335,2883.938304,86518.14911999999,86518,2883.9333333333334,3.494648000525558,2,2,6,2,2.0,2.0,b'SB_30_LongA.png',2887.4329520005253,86622.98856001576,86622,2887.4
180,2887.453696,86623.61088000001,86623,2887.4333333333334,2888.0271359999997,86640.81408,86640,2888.0,2890.072064,86702.16192,86702,2890.0666666666666,2.066759457715307,2,1,4,1,2.0,1.0,b'SB_30_ShortA.png',2892.1388234577153,86764.16470373145,86764,2892.133333333333
