trial_num,fixcross_time,fixation_HZ,fixation_bin,fixation_regarded,start_time,Fstart_HZ,Fstart_bin,Fstart_regarded,stop_time,Fstop_HZ,Fstop_bin,Fstop_regarded,RT,boundary_type,key,resp_value,leftright,accuracy,confidence,frameName,response_time,response_HZ,response_bin,response_regarded
1,2091.477231,62744.31692999999,62744,2091.4666666666667,2092.01042375,62760.3127125,62760,2092.0,2094.04479925,62821.34397749999,62821,2094.0333333333333,0.0,2,2,1,1,1.0,0.0,b'SB_15_LongA.png',2094.04479925,62821.34397749999,62821,2094.0333333333333
2,2093.05572,62791.671599999994,62791,2093.0333333333333,2093.6556137499997,62809.66841249999,62809,2093.633333333333,2095.68931325,62870.6793975,62870,2095.6666666666665,0.0,2,2,1,1,1.0,0.0,b'SB_25_ShortA.png',2095.68931325,62870.6793975,62870,2095.6666666666665
3,2098.1296795,62943.89038499999,62943,2098.1,2098.6462349999997,62959.38704999999,62959,2098.633333333333,2100.69827,63020.948099999994,63020,2100.6666666666665,-0.5600651726708747,2,2,7,2,2.0,3.0,b'SB_11_ShortA.png',2100.138204827329,63004.14614481987,63004,2100.133333333333
4,2100.176611,63005.29833,63005,2100.1666666666665,2100.793157,63023.79471,63023,2100.766666666667,2102.826694,63084.80082,63084,2102.8,3.3779442380327964,3,2,6,2,2.0,2.0,b'HB_42_ShortA.png',2106.2046382380327,63186.13914714098,63186,2106.2
5,2106.23198525,63186.9595575,63186,2106.2,2106.74855975,63202.4567925,63202,2106.733333333333,2108.7835075,63263.50522499999,63263,2108.766666666667,2.4746014766569715,3,1,4,1,2.0,1.0,b'HB_60_ShortA.png',2111.258108976657,63337.7432692997,63337,2111.233333333333
6,2111.2828719999998,63338.48615999999,63338,2111.266666666667,2111.8827552499997,63356.48265749999,63356,2111.866666666667,2113.91704075,63417.511222500005,63417,2113.9,2.43159091839334,1,2,6,2,2.0,2.0,b'NB_29_ShortA.png',2116.3486316683934,63490.458950051805,63490,2116.3333333333335
7,2116.3614334999997,63490.843004999995,63490,2116.3333333333335,2116.9113414999997,63507.34024499999,63507,2116.9,2118.9447274999998,63568.341824999996,63568,2118.9333333333334,2.9594106420408934,2,2,7,2,2.0,3.0,b'SB_37_LongA.png',2121.9041381420407,63657.12414426122,63657,2121.9
8,2121.91555925,63657.466777500005,63657,2121.9,2122.48210875,63674.4632625,63674,2122.4666666666667,2124.5158895,63735.476685,63735,2124.5,-0.19038334747892804,3,2,6,2,2.0,2.0,b'HB_3_ShortA.png',2124.325506152521,63729.76518457563,63729,2124.3
9,2124.333716,63730.01148,63730,2124.3333333333335,2124.88361825,63746.508547499994,63746,2124.866666666667,2126.91746725,63807.52401749999,63807,2126.9,-3.4178852004697546,2,1,3,1,2.0,2.0,b'SB_30_ShortA.png',2123.49958204953,63704.9874614859,63704,2123.4666666666667
10,2123.51708725,63705.5126175,63705,2123.5,2124.01698375,63720.50951249999,63720,2124.0,2126.0503922499997,63781.51176749999,63781,2126.0333333333333,0.0,2,1,1,1,2.0,0.0,b'SB_51_LongA.png',2126.0503922499997,63781.51176749999,63781,2126.0333333333333
11,2128.11383,63843.414899999996,63843,2128.1,2128.697033,63860.91099,63860,2128.6666666666665,2130.7314355,63921.943065,63921,2130.7,0.0,3,2,1,1,1.0,0.0,b'HB_18_ShortA.png',2130.7314355,63921.943065,63921,2130.7
12,2135.80507425,64074.1522275,64074,2135.8,2136.35495325,64090.6485975,64090,2136.3333333333335,2138.38962925,64151.6888775,64151,2138.366666666667,1.1370182030368596,3,1,3,1,2.0,2.0,b'HB_12_ShortA.png',2139.5266474530367,64185.7994235911,64185,2139.5
13,2139.54344175,64186.3032525,64186,2139.5333333333333,2140.0933299999997,64202.79989999999,64202,2140.0666666666666,2142.1275465,64263.826395,64263,2142.1,1.5815911976242205,2,2,7,2,2.0,3.0,b'SB_26_LongA.png',2143.709137697624,64311.27413092872,64311,2143.7
14,2143.727293,64311.81879,64311,2143.7,2144.2438469999997,64327.315409999996,64327,2144.233333333333,2146.2781885,64388.345655,64388,2146.266666666667,2.9559817416156875,3,1,4,1,2.0,1.0,b'HB_50_LongA.png',2149.2341702416156,64477.02510724847,64477,2149.233333333333
15,2149.2515722499998,64477.54716749999,64477,2149.233333333333,2149.85144575,64495.543372500004,64495,2149.8333333333335,2151.885647,64556.569410000004,64556,2151.866666666667,0.0,3,2,1,1,1.0,0.0,b'HB_22_ShortA.png',2151.885647,64556.569410000004,64556,2151.866666666667
16,2156.244679,64687.34037,64687,2156.233333333333,2156.84456575,64705.3369725,64705,2156.8333333333335,2158.87888975,64766.3666925,64766,2158.866666666667,0.0,3,1,1,1,2.0,0.0,b'HB_15_ShortA.png',2158.87888975,64766.3666925,64766,2158.866666666667
17,2161.3015385,64839.046154999996,64839,2161.3,2161.88473725,64856.5421175,64856,2161.866666666667,2163.9195434999997,64917.58630499999,64917,2163.9,-0.14518587100610603,1,1,4,1,2.0,1.0,b'NB_3_ShortA.png',2163.7743576289936,64913.23072886981,64913,2163.766666666667
18,2163.7949375,64913.848125,64913,2163.766666666667,2164.3948259999997,64931.84477999999,64931,2164.366666666667,2166.42829925,64992.84897749999,64992,2166.4,2.0525224438897567,3,1,4,1,2.0,1.0,b'HB_7_LongA.png',2168.4808216938895,65054.42465081668,65054,2168.4666666666667
19,2168.49351025,65054.8053075,65054,2168.4666666666667,2169.07671875,65072.301562500004,65072,2169.0666666666666,2171.1102444999997,65133.30733499999,65133,2171.1,0.0,1,2,1,1,1.0,0.0,b'NB_18_LongA.png',2171.1102444999997,65133.30733499999,65133,2171.1
20,2169.8924079999997,65096.77223999999,65096,2169.866666666667,2170.37564225,65111.2692675,65111,2170.366666666667,2172.40932975,65172.279892499995,65172,2172.4,0.0,1,1,1,1,2.0,0.0,b'NB_28_ShortA.png',2172.40932975,65172.279892499995,65172,2172.4
21,2172.8428215,65185.284645,65185,2172.8333333333335,2173.3760589999997,65201.281769999994,65201,2173.366666666667,2175.4106455,65262.319365,65262,2175.4,1.3256147351494292,1,1,4,1,2.0,1.0,b'NB_6_LongA.png',2176.7362602351495,65302.087807054486,65302,2176.733333333333
22,2176.7535335,65302.606004999994,65302,2176.733333333333,2177.3534087499997,65320.60226249999,65320,2177.3333333333335,2179.38716775,65381.615032500005,65381,2179.366666666667,3.1634412265993888,3,2,5,2,2.0,1.0,b'HB_41_LongA.png',2182.5506089765995,65476.51826929799,65476,2182.5333333333333
23,2182.5664294999997,65476.99288499999,65476,2182.5333333333333,2183.149646,65494.48938,65494,2183.133333333333,2185.18320975,65555.4962925,65555,2185.1666666666665,3.437133058803738,1,2,5,2,2.0,1.0,b'NB_25_LongA.png',2188.620342808804,65658.61028426411,65658,2188.6
24,2188.63776325,65659.13289749999,65659,2188.633333333333,2189.15431125,65674.6293375,65674,2189.133333333333,2191.18902,65735.6706,65735,2191.1666666666665,2.2053677405347116,2,1,2,1,2.0,3.0,b'SB_21_LongA.png',2193.3943877405345,65801.83163221604,65801,2193.366666666667
25,2193.40877125,65802.2631375,65802,2193.4,2193.941992,65818.25976,65818,2193.9333333333334,2195.97588375,65879.2765125,65879,2195.9666666666667,1.7476534351881128,3,1,4,1,2.0,1.0,b'HB_16_LongA.png',2197.723537185188,65931.70611555564,65931,2197.7
26,2197.7407665,65932.222995,65932,2197.733333333333,2198.39064725,65951.71941749999,65951,2198.366666666667,2200.42462675,66012.7388025,66012,2200.4,0.5720003509632079,2,2,6,2,2.0,2.0,b'SB_43_LongA.png',2200.996627100963,66029.89881302889,66029,2200.9666666666667
27,2201.0151244999997,66030.45373499999,66030,2201.0,2201.5483595,66046.45078500001,66046,2201.5333333333333,2203.582065,66107.46195,66107,2203.5666666666666,1.2386925181635888,3,2,5,2,2.0,1.0,b'HB_20_LongA.png',2204.8207575181636,66144.6227255449,66144,2204.8
28,2204.83324625,66144.9973875,66144,2204.8,2205.4331315,66162.993945,66162,2205.4,2207.46665125,66223.9995375,66223,2207.4333333333334,-0.7739556479500607,3,1,5,2,1.0,1.0,b'HB_29_LongA.png',2206.6926956020498,66200.7808680615,66200,2206.6666666666665
29,2206.713484,66201.40452,66201,2206.7,2207.3300265,66219.900795,66219,2207.3,2209.3635105,66280.905315,66280,2209.3333333333335,0.8216360113437986,1,1,4,1,2.0,1.0,b'NB_9_LongA.png',2210.1851465113436,66305.55439534031,66305,2210.1666666666665
30,2210.189939,66305.69816999999,66305,2210.1666666666665,2210.70647275,66321.19418250001,66321,2210.7,2212.74153325,66382.2459975,66382,2212.733333333333,1.9269436757167568,3,1,5,2,1.0,1.0,b'HB_26_LongA.png',2214.6684769257167,66440.0543077715,66440,2214.6666666666665
31,2214.6794784999997,66440.38435499999,66440,2214.6666666666665,2215.21271275,66456.3813825,66456,2215.2,2217.246224,66517.38672,66517,2217.233333333333,-3.522984711744357,2,1,4,1,2.0,1.0,b'SB_52_ShortA.png',2213.7232392882556,66411.69717864766,66411,2213.7
32,2213.73213325,66411.9639975,66411,2213.7,2214.315357,66429.46071,66429,2214.3,2216.34976225,66490.4928675,66490,2216.3333333333335,-0.6715221182530513,2,2,5,2,2.0,1.0,b'SB_53_LongA.png',2215.678240131747,66470.3472039524,66470,2215.6666666666665
33,2215.6890715,66470.672145,66470,2215.6666666666665,2216.238957,66487.16871,66487,2216.233333333333,2218.27235625,66548.1706875,66548,2218.266666666667,6.557586722265114,2,1,3,1,2.0,2.0,b'SB_47_ShortA.png',2224.829942972265,66744.89828916795,66744,2224.8
34,2224.85342725,66745.60281750001,66745,2224.8333333333335,2225.41998125,66762.5994375,66762,2225.4,2227.4536395,66823.609185,66823,2227.4333333333334,2.4120136307756184,3,1,5,2,1.0,1.0,b'HB_39_LongA.png',2229.8656531307756,66895.96959392326,66895,2229.8333333333335
35,2229.8781045,66896.343135,66896,2229.866666666667,2230.4946535,66914.839605,66914,2230.4666666666667,2232.52895925,66975.8687775,66975,2232.5,4.234257613075897,3,2,4,1,1.0,1.0,b'HB_33_LongA.png',2236.7632168630757,67102.89650589228,67102,2236.733333333333
36,2236.78637425,67103.5912275,67103,2236.766666666667,2237.45290775,67123.58723250001,67123,2237.4333333333334,2239.4864574999997,67184.59372499998,67184,2239.4666666666667,3.1442561862204457,2,2,6,2,2.0,2.0,b'SB_56_ShortA.png',2242.63071368622,67278.9214105866,67278,2242.6
37,2242.6385582499997,67279.15674749999,67279,2242.633333333333,2243.2217769999997,67296.65331,67296,2243.2,2245.2554959999998,67357.66488,67357,2245.233333333333,3.137502070007031,3,1,5,2,1.0,1.0,b'HB_35_ShortA.png',2248.392998070007,67451.78994210021,67451,2248.366666666667
38,2248.39816075,67451.9448225,67451,2248.366666666667,2248.9147267499998,67467.44180249999,67467,2248.9,2250.9482734999997,67528.448205,67528,2250.9333333333334,-0.35033520159777254,2,1,3,1,2.0,2.0,b'SB_3_LongA.png',2250.597938298402,67517.93814895206,67517,2250.5666666666666
39,2250.6027302499997,67518.08190749999,67518,2250.6,2251.2026195,67536.078585,67536,2251.2,2253.2361765,67597.085295,67597,2253.233333333333,3.6021290466742357,3,1,5,2,1.0,1.0,b'HB_58_ShortA.png',2256.8383055466743,67705.14916640022,67705,2256.8333333333335
40,2256.84926775,67705.47803249999,67705,2256.8333333333335,2257.39915225,67721.9745675,67721,2257.366666666667,2259.4325335,67782.97600499999,67782,2259.4,1.4594379200570984,1,2,5,2,2.0,1.0,b'NB_30_LongA.png',2260.891971420057,67826.7591426017,67826,2260.866666666667
41,2260.90106725,67827.0320175,67827,2260.9,2261.45096225,67843.5288675,67843,2261.4333333333334,2263.48435825,67904.53074749999,67904,2263.4666666666667,2.1723059588111937,2,1,3,1,2.0,2.0,b'SB_41_ShortA.png',2265.656664208811,67969.69992626432,67969,2265.633333333333
42,2265.675447,67970.26341,67970,2265.6666666666665,2266.2085792499997,67986.25737749999,67986,2266.2,2268.24313525,68047.2940575,68047,2268.233333333333,1.9183477434417,3,2,5,2,2.0,1.0,b'HB_1_LongA.png',2270.1614829934415,68104.84448980325,68104,2270.133333333333
43,2270.1659205,68104.977615,68104,2270.133333333333,2270.73248525,68121.9745575,68121,2270.7,2272.766614,68182.99842,68182,2272.733333333333,1.8818577261263272,1,2,6,2,2.0,2.0,b'NB_16_LongA.png',2274.6484717261264,68239.4541517838,68239,2274.633333333333
44,2274.66889775,68240.06693249999,68240,2274.6666666666665,2275.268772,68258.06315999999,68258,2275.266666666667,2277.30245225,68319.0735675,68319,2277.3,2.13545219162188,2,1,3,1,2.0,2.0,b'SB_38_ShortA.png',2279.437904441622,68383.13713324866,68383,2279.4333333333334
45,2279.45525675,68383.6577025,68383,2279.4333333333334,2280.0050874999997,68400.15262499999,68400,2280.0,2282.03895575,68461.16867249999,68461,2282.0333333333333,-0.9445963342441246,1,1,4,1,2.0,1.0,b'NB_17_LongA.png',2281.0943594157557,68432.83078247267,68432,2281.0666666666666
46,2281.11035575,68433.3106725,68433,2281.1,2281.67691475,68450.3074425,68450,2281.6666666666665,2283.71029075,68511.30872249999,68511,2283.7,4.074927230962203,3,2,6,2,2.0,2.0,b'HB_24_ShortA.png',2287.785217980962,68633.55653942886,68633,2287.766666666667
47,2287.79119275,68633.73578249999,68633,2287.766666666667,2288.374412,68651.23236000001,68651,2288.366666666667,2290.408837,68712.26511,68712,2290.4,-3.628665484080557,2,2,6,2,2.0,2.0,b'SB_49_LongA.png',2286.7801715159194,68603.40514547758,68603,2286.766666666667
48,2286.788105,68603.64315,68603,2286.766666666667,2287.35465575,68620.6396725,68620,2287.3333333333335,2289.3894725,68681.684175,68681,2289.366666666667,0.5928959197335644,2,2,6,2,2.0,2.0,b'SB_12_LongA.png',2289.9823684197336,68699.47105259201,68699,2289.9666666666667
49,2290.00134875,68700.04046250001,68700,2290.0,2290.6511969999997,68719.53590999999,68719,2290.633333333333,2292.6853942499997,68780.56182749999,68780,2292.6666666666665,3.445131276239408,3,2,4,1,1.0,1.0,b'HB_17_ShortA.png',2296.130525526239,68883.91576578717,68883,2296.1
50,2296.14072525,68884.2217575,68884,2296.133333333333,2296.7406025,68902.218075,68902,2296.733333333333,2298.7740565,68963.221695,68963,2298.766666666667,-2.767410499189282,2,2,6,2,2.0,2.0,b'SB_42_ShortA.png',2296.0066460008106,68880.19938002432,68880,2296.0
51,2296.0131195,68880.393585,68880,2296.0,2296.629657,68898.88971,68898,2296.6,2298.66337075,68959.9011225,68959,2298.633333333333,3.5050293633685214,2,1,3,1,2.0,2.0,b'SB_54_LongA.png',2302.1684001133685,69065.05200340106,69065,2302.1666666666665
52,2302.183696,69065.51088,69065,2302.1666666666665,2302.75023575,69082.5070725,69082,2302.733333333333,2304.78401025,69143.5203075,69143,2304.766666666667,0.6816267803224036,1,2,5,2,2.0,1.0,b'NB_5_LongA.png',2305.4656370303223,69163.96911090967,69163,2305.4333333333334
53,2305.4856795,69164.570385,69164,2305.4666666666667,2306.1188792499997,69183.56637749998,69183,2306.1,2308.1524462499997,69244.57338749999,69244,2308.133333333333,3.0865501022490207,2,2,6,2,2.0,2.0,b'SB_20_LongA.png',2311.2389963522487,69337.16989056746,69337,2311.233333333333
54,2311.24814375,69337.4443125,69337,2311.233333333333,2311.83136075,69354.9408225,69354,2311.8,2313.8647097499997,69415.94129249999,69415,2313.8333333333335,1.7423123410117114,3,1,5,2,1.0,1.0,b'HB_32_LongA.png',2315.6070220910115,69468.21066273034,69468,2315.6
55,2315.6230419999997,69468.69125999999,69468,2315.6,2316.1895925,69485.687775,69485,2316.1666666666665,2318.223951,69546.71853,69546,2318.2,2.33406297233887,3,2,5,2,2.0,1.0,b'HB_51_LongA.png',2320.558013972339,69616.74041917016,69616,2320.5333333333333
56,2320.571626,69617.14878,69617,2320.5666666666666,2321.08820325,69632.6460975,69632,2321.0666666666666,2323.1222135,69693.666405,69693,2323.1,4.141134917575982,2,2,6,2,2.0,2.0,b'SB_19_ShortA.png',2327.263348417576,69817.90045252728,69817,2327.233333333333
57,2327.2815175,69818.445525,69818,2327.266666666667,2327.8147455,69834.442365,69834,2327.8,2329.848094,69895.44282,69895,2329.8333333333335,0.6118901713198284,1,1,3,1,2.0,2.0,b'NB_14_ShortA.png',2330.45998417132,69913.79952513959,69913,2330.4333333333334
58,2330.4740202499997,69914.2206075,69914,2330.4666666666667,2331.10722375,69933.2167125,69933,2331.1,2333.1409285,69994.227855,69994,2333.133333333333,0.25715860482887365,3,1,5,2,1.0,1.0,b'HB_11_ShortA.png',2333.398087104829,70001.94261314487,70001,2333.366666666667
59,2333.40351475,70002.1054425,70002,2333.4,2334.0367235,70021.101705,70021,2334.0333333333333,2336.07123375,70082.1370125,70082,2336.0666666666666,5.238653174601495,2,2,7,2,2.0,3.0,b'SB_55_LongA.png',2341.3098869246014,70239.29660773804,70239,2341.3
60,2341.3182122499998,70239.54636749999,70239,2341.3,2341.8680995,70256.042985,70256,2341.866666666667,2343.90246225,70317.0738675,70317,2343.9,1.3782972059125314,2,1,3,1,2.0,2.0,b'SB_1_LongA.png',2345.2807594559126,70358.42278367738,70358,2345.266666666667
61,2345.2910187499997,70358.73056249999,70358,2345.266666666667,2345.92422525,70377.7267575,70377,2345.9,2347.9589085,70438.767255,70438,2347.9333333333334,-0.11335240233165678,1,1,4,1,2.0,1.0,b'NB_7_ShortA.png',2347.845556097668,70435.36668293005,70435,2347.8333333333335
62,2347.86282325,70435.8846975,70435,2347.8333333333335,2348.4793569999997,70454.38071,70454,2348.4666666666667,2350.513962,70515.41886,70515,2350.5,1.0496321875689318,3,1,5,2,1.0,1.0,b'HB_57_ShortA.png',2351.563594187569,70546.90782562707,70546,2351.5333333333333
63,2351.57399825,70547.2199475,70547,2351.5666666666666,2352.123857,70563.71571,70563,2352.1,2354.15753525,70624.7260575,70624,2354.133333333333,2.6866142667422537,3,1,5,2,1.0,1.0,b'HB_45_ShortA.png',2356.844149516742,70705.32448550226,70705,2356.8333333333335
64,2356.852926,70705.58778,70705,2356.8333333333335,2357.4194705,70722.584115,70722,2357.4,2359.454134,70783.62402,70783,2359.4333333333334,0.18370660695654806,2,2,7,2,2.0,3.0,b'SB_27_ShortA.png',2359.6378406069566,70789.1352182087,70789,2359.633333333333
65,2359.65424525,70789.6273575,70789,2359.633333333333,2360.25412075,70807.62362249999,70807,2360.233333333333,2362.28756325,70868.6268975,70868,2362.266666666667,-0.9910986114264233,1,1,3,1,2.0,2.0,b'NB_24_ShortA.png',2361.2964646385735,70838.8939391572,70838,2361.266666666667
66,2361.31181325,70839.35439749999,70839,2361.3,2361.87835825,70856.3507475,70856,2361.866666666667,2363.9124555,70917.37366499999,70917,2363.9,-0.8311435098876245,1,1,4,1,2.0,1.0,b'NB_19_ShortA.png',2363.081311990112,70892.43935970336,70892,2363.0666666666666
67,2363.09361375,70892.80841249999,70892,2363.0666666666666,2363.593509,70907.80527,70907,2363.5666666666666,2365.6269185,70968.807555,70968,2365.6,0.6026021586876595,1,2,5,2,2.0,1.0,b'NB_2_LongA.png',2366.2295206586878,70986.88561976064,70986,2366.2
68,2366.24746275,70987.4238825,70987,2366.233333333333,2366.89734525,71006.9203575,71006,2366.866666666667,2368.93071275,71067.9213825,71067,2368.9,1.8029032482736511,2,1,3,1,2.0,2.0,b'SB_59_LongA.png',2370.7336159982738,71122.00847994821,71122,2370.733333333333
69,2370.74607525,71122.38225750001,71122,2370.733333333333,2371.32928525,71139.8785575,71139,2371.3,2373.3629352499997,71200.8880575,71200,2373.3333333333335,1.653392521708156,2,1,3,1,2.0,2.0,b'SB_8_LongA.png',2375.016327771708,71250.48983315124,71250,2375.0
70,2375.03660375,71251.0981125,71251,2375.0333333333333,2375.669801,71270.09403000001,71270,2375.6666666666665,2377.70342575,71331.1027725,71331,2377.7,0.01798756726202555,1,2,5,2,2.0,1.0,b'NB_21_LongA.png',2377.721413317262,71331.64239951786,71331,2377.7
71,2377.732145,71331.96435,71331,2377.7,2378.3320125,71349.960375,71349,2378.3,2380.36547075,71410.9641225,71410,2380.3333333333335,3.9525316487124655,1,1,3,1,2.0,2.0,b'NB_28_LongA.png',2384.3180023987125,71529.54007196137,71529,2384.3
72,2384.33231175,71529.9693525,71529,2384.3,2384.8988575,71546.965725,71546,2384.866666666667,2386.93313125,71607.9939375,71607,2386.9,-0.10151560491067357,1,1,3,1,2.0,2.0,b'NB_30_ShortA.png',2386.831615645089,71604.94846935268,71604,2386.8
73,2386.84903,71605.4709,71605,2386.8333333333335,2387.39891775,71621.9675325,71621,2387.366666666667,2389.43341525,71683.0024575,71683,2389.4333333333334,1.2806021773139946,1,2,6,2,2.0,2.0,b'NB_26_LongA.png',2390.714017427314,71721.42052281942,71721,2390.7
74,2390.73316625,71721.9949875,71721,2390.7,2391.2330665,71736.991995,71736,2391.2,2393.26643475,71797.99304249999,71797,2393.233333333333,1.1189893788832705,3,2,4,1,1.0,1.0,b'HB_6_ShortA.png',2394.385424128883,71831.56272386649,71831,2394.366666666667
75,2394.39760825,71831.92824749999,71831,2394.366666666667,2394.997474,71849.92421999999,71849,2394.9666666666667,2397.0314005,71910.94201500001,71910,2397.0,0.536030026662047,1,1,3,1,2.0,2.0,b'NB_18_ShortA.png',2397.567430526662,71927.02291579987,71927,2397.5666666666666
76,2397.58596975,71927.5790925,71927,2397.5666666666666,2398.1858445,71945.575335,71945,2398.1666666666665,2400.220047,72006.60140999999,72006,2400.2,4.189593816117849,1,1,3,1,2.0,2.0,b'NB_19_LongA.png',2404.4096408161176,72132.28922448352,72132,2404.4
77,2404.4223285,72132.669855,72132,2404.4,2404.9888794999997,72149.66638499999,72149,2404.9666666666667,2407.0233829999997,72210.70148999999,72210,2407.0,1.935091641789768,3,1,6,2,1.0,2.0,b'HB_37_ShortA.png',2408.9584746417895,72268.75423925369,72268,2408.9333333333334
78,2408.964069,72268.92207,72268,2408.9333333333334,2409.5639472499997,72286.9184175,72286,2409.5333333333333,2411.59815125,72347.94453749999,72347,2411.5666666666666,0.8938519027724396,2,1,2,1,2.0,3.0,b'SB_28_ShortA.png',2412.492003152772,72374.76009458317,72374,2412.4666666666667
79,2412.50837075,72375.25112249999,72375,2412.5,2413.1082027499997,72393.24608249999,72393,2413.1,2415.141619,72454.24857,72454,2415.133333333333,3.8562024697021116,3,2,3,1,1.0,2.0,b'HB_34_LongA.png',2418.997821469702,72569.93464409106,72569,2418.9666666666667
80,2419.0143595,72570.430785,72570,2419.0,2419.680884,72590.42652,72590,2419.6666666666665,2421.715398,72651.46194,72651,2421.7,1.2750673080445267,3,1,3,1,2.0,2.0,b'HB_27_ShortA.png',2422.9904653080443,72689.71395924133,72689,2422.9666666666667
81,2422.99858625,72689.95758749999,72689,2422.9666666666667,2423.58179425,72707.4538275,72707,2423.5666666666666,2425.61588725,72768.4766175,72768,2425.6,2.0550958252861165,3,2,5,2,2.0,1.0,b'HB_47_LongA.png',2427.670983075286,72830.12949225858,72830,2427.6666666666665
82,2427.675044,72830.25132,72830,2427.6666666666665,2428.20827875,72846.2483625,72846,2428.2,2430.242218,72907.26654,72907,2430.233333333333,0.0,1,1,1,1,2.0,0.0,b'NB_1_ShortA.png',2430.242218,72907.26654,72907,2430.233333333333
83,2434.1798437499997,73025.3953125,73025,2434.1666666666665,2434.779727,73043.39181,73043,2434.766666666667,2436.8134185,73104.402555,73104,2436.8,0.865475338709075,2,1,2,1,2.0,3.0,b'SB_22_LongA.png',2437.678893838709,73130.36681516127,73130,2437.6666666666665
84,2437.694608,73130.83824,73130,2437.6666666666665,2438.277814,73148.33442,73148,2438.266666666667,2440.311554,73209.34662,73209,2440.3,0.764409465045901,3,1,6,2,1.0,2.0,b'HB_10_LongA.png',2441.075963465046,73232.27890395137,73232,2441.0666666666666
85,2441.0956874999997,73232.870625,73232,2441.0666666666666,2441.6955602499997,73250.86680749999,73250,2441.6666666666665,2443.72933925,73311.8801775,73311,2443.7,3.1915828048367985,3,1,6,2,1.0,2.0,b'HB_30_ShortA.png',2446.920922054837,73407.6276616451,73407,2446.9
86,2446.92824225,73407.84726750001,73407,2446.9,2447.478125,73424.34375,73424,2447.4666666666667,2449.512507,73485.37521,73485,2449.5,2.9504516478045844,3,2,7,2,2.0,3.0,b'HB_8_LongA.png',2452.4629586478045,73573.88875943414,73573,2452.4333333333334
87,2452.46846,73574.0538,73574,2452.4666666666667,2453.0850035,73592.550105,73592,2453.0666666666666,2455.118783,73653.56349,73653,2455.1,0.1933615328016458,3,1,2,1,2.0,3.0,b'HB_55_LongA.png',2455.3121445328015,73659.36433598405,73659,2455.3
88,2455.3213485,73659.640455,73659,2455.3,2455.90457175,73677.1371525,73677,2455.9,2457.9382324999997,73738.146975,73738,2457.9333333333334,0.18734624880016781,1,1,3,1,2.0,2.0,b'NB_6_ShortA.png',2458.1255787488,73743.767362464,73743,2458.1
89,2458.132053,73743.96158999999,73743,2458.1,2458.66526225,73759.95786750001,73759,2458.633333333333,2460.698602,73820.95806,73820,2460.6666666666665,2.5758700439764652,1,1,3,1,2.0,2.0,b'NB_12_ShortA.png',2463.2744720439764,73898.2341613193,73898,2463.266666666667
90,2463.29066875,73898.7200625,73898,2463.266666666667,2463.8738842499997,73916.21652749999,73916,2463.866666666667,2465.9075565,73977.22669499999,73977,2465.9,0.031024532770970836,1,2,6,2,2.0,2.0,b'NB_5_ShortA.png',2465.938581032771,73978.15743098312,73978,2465.9333333333334
91,2465.9515885,73978.547655,73978,2465.9333333333334,2466.53477825,73996.04334749999,73996,2466.5333333333333,2468.5692515,74057.07754500001,74057,2468.5666666666666,1.0512923730857437,3,2,5,2,2.0,1.0,b'HB_44_ShortA.png',2469.620543873086,74088.61631619258,74088,2469.6
92,2469.62742,74088.8226,74088,2469.6,2470.17729725,74105.3189175,74105,2470.1666666666665,2472.2106787499997,74166.32036249999,74166,2472.2,2.9397722952999175,1,2,5,2,2.0,1.0,b'NB_1_LongA.png',2475.1504510452996,74254.51353135899,74254,2475.133333333333
93,2475.165175,74254.95525,74254,2475.133333333333,2475.74839025,74272.45170749999,74272,2475.733333333333,2477.7826155,74333.478465,74333,2477.766666666667,5.263258626422612,1,1,4,1,2.0,1.0,b'NB_27_ShortA.png',2483.0458741264224,74491.37622379267,74491,2483.0333333333333
94,2483.058818,74491.76454,74491,2483.0333333333333,2483.65869775,74509.76093250001,74509,2483.633333333333,2485.6924369999997,74570.77311,74570,2485.6666666666665,-0.7851282732881373,2,2,6,2,2.0,2.0,b'SB_48_ShortA.png',2484.9073087267116,74547.21926180135,74547,2484.9
95,2484.91619975,74547.4859925,74547,2484.9,2485.4327574999998,74562.982725,74562,2485.4,2487.4667915,74624.003745,74624,2487.4666666666667,1.4632027649786323,3,2,6,2,2.0,2.0,b'HB_52_LongA.png',2488.9299942649786,74667.89982794935,74667,2488.9
96,2488.9433679999997,74668.30103999999,74668,2488.9333333333334,2489.4599212499998,74683.79763749999,74683,2489.4333333333334,2491.4944025,74744.832075,74744,2491.4666666666667,0.5736835255956976,1,1,4,1,2.0,1.0,b'NB_12_LongA.png',2492.0680860255957,74762.04258076787,74762,2492.0666666666666
97,2492.08941875,74762.68256249999,74762,2492.0666666666666,2492.6892909999997,74780.67872999999,74780,2492.6666666666665,2494.7245614999997,74841.73684499999,74841,2494.7,1.3108622294967063,2,2,6,2,2.0,2.0,b'SB_40_LongA.png',2496.0354237294964,74881.0627118849,74881,2496.0333333333333
98,2496.03849975,74881.1549925,74881,2496.0333333333333,2496.6883705,74900.651115,74900,2496.6666666666665,2498.72310925,74961.6932775,74961,2498.7,-0.22534762060968205,1,2,5,2,2.0,1.0,b'NB_10_ShortA.png',2498.4977616293904,74954.93284888171,74954,2498.4666666666667
99,2498.50933,74955.2799,74955,2498.5,2499.12587075,74973.7761225,74973,2499.1,2501.1603072499997,75034.80921749999,75034,2501.133333333333,-1.3426167707366403,3,2,6,2,2.0,2.0,b'HB_9_LongA.png',2499.817690479263,74994.53071437789,74994,2499.8
100,2499.82844625,74994.8533875,74994,2499.8,2500.36168025,75010.8504075,75010,2500.3333333333335,2502.39579375,75071.8738125,75071,2502.366666666667,0.5070308977010427,3,1,6,2,1.0,2.0,b'HB_14_ShortA.png',2502.902824647701,75087.08473943103,75087,2502.9
101,2502.9198425,75087.595275,75087,2502.9,2503.55305425,75106.5916275,75106,2503.5333333333333,2505.5870625,75167.61187499999,75167,2505.5666666666666,-1.4329983472562162,2,2,2,1,1.0,3.0,b'SB_32_ShortA.png',2504.1540641527436,75124.6219245823,75124,2504.133333333333
102,2504.15655875,75124.6967625,75124,2504.133333333333,2504.6898069999997,75140.69420999999,75140,2504.6666666666665,2506.72342875,75201.7028625,75201,2506.7,-1.0192408983130008,1,1,4,1,2.0,1.0,b'NB_4_ShortA.png',2505.704187851687,75171.1256355506,75171,2505.7
103,2505.71252775,75171.3758325,75171,2505.7,2506.34573625,75190.3720875,75190,2506.3333333333335,2508.380337,75251.41011,75251,2508.366666666667,1.1517282064451138,3,1,2,1,2.0,3.0,b'HB_36_ShortA.png',2509.532065206445,75285.96195619335,75285,2509.5
104,2509.53908925,75286.1726775,75286,2509.5333333333333,2510.12231575,75303.6694725,75303,2510.1,2512.1559924999997,75364.679775,75364,2512.133333333333,3.3588316873501753,1,1,5,2,1.0,1.0,b'NB_22_LongA.png',2515.51482418735,75465.4447256205,75465,2515.5
105,2515.5214512499997,75465.64353749999,75465,2515.5,2516.1213264999997,75483.639795,75483,2516.1,2518.1560652499998,75544.6819575,75544,2518.133333333333,2.9455799792631296,3,1,2,1,2.0,3.0,b'HB_40_LongA.png',2521.101645229263,75633.04935687789,75633,2521.1
106,2521.1077072499997,75633.2312175,75633,2521.1,2521.724249,75651.72747,75651,2521.7,2523.75902025,75712.7706075,75712,2523.733333333333,2.293553921612329,1,2,6,2,2.0,2.0,b'NB_15_LongA.png',2526.0525741716124,75781.57722514837,75781,2526.0333333333333
107,2526.06000275,75781.8000825,75781,2526.0333333333333,2526.6598765,75799.796295,75799,2526.633333333333,2528.694477,75860.83431,75860,2528.6666666666665,2.804054338048445,1,2,3,1,1.0,2.0,b'NB_25_ShortA.png',2531.4985313380485,75944.95594014146,75944,2531.4666666666667
108,2531.50557475,75945.1672425,75945,2531.5,2532.055456,75961.66368,75961,2532.0333333333333,2534.08891175,76022.66735250001,76022,2534.0666666666666,0.7973830322589492,1,1,6,2,1.0,2.0,b'NB_26_ShortA.png',2534.886294782259,76046.58884346778,76046,2534.866666666667
109,2534.90355125,76047.1065375,76047,2534.9,2535.503424,76065.10272,76065,2535.5,2537.537821,76126.13463,76126,2537.5333333333333,-0.44882494560442865,1,1,7,2,1.0,3.0,b'NB_4_LongA.png',2537.0889960543955,76112.66988163187,76112,2537.0666666666666
110,2537.09758925,76112.9276775,76112,2537.0666666666666,2537.64747125,76129.4241375,76129,2537.633333333333,2539.681953,76190.45859,76190,2539.6666666666665,0.13468187220860273,1,1,7,2,1.0,3.0,b'NB_7_LongA.png',2539.8166348722084,76194.49904616625,76194,2539.8
111,2539.83196025,76194.9588075,76194,2539.8,2540.3651797499997,76210.9553925,76210,2540.3333333333335,2542.3987334999997,76271.962005,76271,2542.366666666667,1.74008167500142,2,1,7,2,1.0,3.0,b'SB_44_ShortA.png',2544.138815175001,76324.16445525004,76324,2544.133333333333
112,2544.15067375,76324.52021249999,76324,2544.133333333333,2544.73389575,76342.0168725,76342,2544.733333333333,2546.768616,76403.05847999999,76403,2546.766666666667,1.9007597425661515,3,2,7,2,2.0,3.0,b'HB_21_LongA.png',2548.669375742566,76460.08127227698,76460,2548.6666666666665
113,2548.687758,76460.63274,76460,2548.6666666666665,2549.28763425,76478.62902749999,76478,2549.266666666667,2551.3211855,76539.635565,76539,2551.3,0.6831421474489616,3,1,2,1,2.0,3.0,b'HB_43_LongA.png',2552.004327647449,76560.12982942347,76560,2552.0
114,2552.00946675,76560.28400249999,76560,2552.0,2552.59267475,76577.7802425,76577,2552.5666666666666,2554.6262564999997,76638.78769499999,76638,2554.6,2.437159816836356,2,2,7,2,2.0,3.0,b'SB_13_ShortA.png',2557.063416316836,76711.90248950508,76711,2557.0333333333333
115,2557.07538225,76712.26146750001,76712,2557.0666666666666,2557.708588,76731.25764,76731,2557.7,2559.74227375,76792.2682125,76792,2559.733333333333,1.858645954853273,3,1,2,1,2.0,3.0,b'HB_2_LongA.png',2561.6009197048534,76848.0275911456,76848,2561.6
116,2561.61245525,76848.37365750001,76848,2561.6,2562.178978,76865.36934,76865,2562.1666666666665,2564.21263675,76926.3791025,76926,2564.2,2.538278479318251,2,2,2,1,1.0,3.0,b'SB_34_ShortA.png',2566.7509152293183,77002.52745687954,77002,2566.733333333333
117,2566.758274,77002.74822,77002,2566.733333333333,2567.241497,77017.24491,77017,2567.233333333333,2569.275745,77078.27235,77078,2569.266666666667,0.07865534513257444,1,2,2,1,1.0,3.0,b'NB_27_LongA.png',2569.3544003451325,77080.63201035398,77080,2569.3333333333335
118,2569.37474075,77081.2422225,77081,2569.366666666667,2569.97462775,77099.23883249999,77099,2569.9666666666667,2572.0089745,77160.269235,77160,2572.0,3.203096800352796,3,2,5,2,2.0,1.0,b'HB_31_LongA.png',2575.212071300353,77256.36213901058,77256,2575.2
119,2575.2314085,77256.942255,77256,2575.2,2575.7313087499997,77271.93926249999,77271,2575.7,2577.7648215,77332.944645,77332,2577.733333333333,-0.418422901944723,1,2,5,2,2.0,1.0,b'NB_22_ShortA.png',2577.346398598055,77320.39195794165,77320,2577.3333333333335
120,2577.34990875,77320.4972625,77320,2577.3333333333335,2577.9497754999998,77338.493265,77338,2577.9333333333334,2579.98420175,77399.5260525,77399,2579.9666666666667,2.9884899006283376,2,1,5,2,1.0,1.0,b'SB_46_LongA.png',2582.9726916506283,77489.18074951886,77489,2582.9666666666667
121,2582.9868469999997,77489.60540999999,77489,2582.9666666666667,2583.5700699999998,77507.10209999999,77507,2583.5666666666666,2585.60427325,77568.1281975,77568,2585.6,2.2608827053190907,2,1,5,2,1.0,1.0,b'SB_50_LongA.png',2587.865155955319,77635.95467865957,77635,2587.8333333333335
122,2587.8826774999998,77636.480325,77636,2587.866666666667,2588.4658839999997,77653.97652,77653,2588.4333333333334,2590.49978125,77714.9934375,77714,2590.4666666666667,2.9515792407328263,2,1,2,1,2.0,3.0,b'SB_31_ShortA.png',2593.451360490733,77803.54081472199,77803,2593.4333333333334
123,2593.45694275,77803.7082825,77803,2593.4333333333334,2593.99017925,77819.7053775,77819,2593.9666666666667,2596.02399975,77880.71999249999,77880,2596.0,1.19556043567718,2,1,6,2,1.0,2.0,b'SB_57_LongA.png',2597.219560185677,77916.5868055703,77916,2597.2
124,2597.22786625,77916.83598749999,77916,2597.2,2597.77784625,77933.3353875,77933,2597.766666666667,2599.81122875,77994.3368625,77994,2599.8,1.256961796534597,1,2,2,1,1.0,3.0,b'NB_24_LongA.png',2601.0681905465344,78032.04571639604,78032,2601.0666666666666
125,2601.07922,78032.3766,78032,2601.0666666666666,2601.6624309999997,78049.87293,78049,2601.633333333333,2603.696993,78110.90979,78110,2603.6666666666665,0.4676717108231969,2,2,6,2,2.0,2.0,b'SB_14_LongA.png',2604.164664710823,78124.9399413247,78124,2604.133333333333
126,2604.179466,78125.38398,78125,2604.1666666666665,2604.77932375,78143.3797125,78143,2604.766666666667,2606.812837,78204.38511,78204,2606.8,3.9645435723359697,2,2,6,2,2.0,2.0,b'SB_29_ShortA.png',2610.777380572336,78323.32141717008,78323,2610.766666666667
127,2610.7905484999997,78323.71645499999,78323,2610.766666666667,2611.3404195,78340.212585,78340,2611.3333333333335,2613.374647,78401.23941000001,78401,2613.366666666667,0.7055194394633872,1,2,6,2,2.0,2.0,b'NB_13_LongA.png',2614.0801664394635,78422.40499318391,78422,2614.0666666666666
128,2614.0954052499997,78422.86215749999,78422,2614.0666666666666,2614.72859625,78441.8578875,78441,2614.7,2616.7622914999997,78502.86874499999,78502,2616.733333333333,3.284699933603406,1,1,2,1,2.0,3.0,b'NB_29_LongA.png',2620.046991433603,78601.40974300809,78601,2620.0333333333333
129,2620.0550909999997,78601.65272999999,78601,2620.0333333333333,2620.5716475,78617.149425,78617,2620.5666666666666,2622.60596325,78678.17889750001,78678,2622.6,2.0305121085839346,3,2,6,2,2.0,2.0,b'HB_25_LongA.png',2624.636475358584,78739.09426075753,78739,2624.633333333333
130,2624.6549422499997,78739.64826749999,78739,2624.633333333333,2625.1881587499997,78755.64476249999,78755,2625.1666666666665,2627.2226942499997,78816.6808275,78816,2627.2,-2.4048267710604705,2,2,6,2,2.0,2.0,b'SB_5_ShortA.png',2624.817867478939,78744.53602436818,78744,2624.8
131,2624.834977,78745.04931,78745,2624.8333333333335,2625.318213,78759.54639,78759,2625.3,2627.3524602499997,78820.5738075,78820,2627.3333333333335,0.43944547553837765,3,2,6,2,2.0,2.0,b'HB_13_LongA.png',2627.791905725538,78833.75717176615,78833,2627.766666666667
132,2627.8052405,78834.157215,78834,2627.8,2628.4051265,78852.15379499999,78852,2628.4,2630.4384725,78913.154175,78913,2630.4333333333334,6.237825063159107,3,1,2,1,2.0,3.0,b'HB_48_LongA.png',2636.676297563159,79100.28892689478,79100,2636.6666666666665
133,2636.68734575,79100.62037250001,79100,2636.6666666666665,2637.32054075,79119.6162225,79119,2637.3,2639.35438475,79180.6315425,79180,2639.3333333333335,-0.9586549247032963,2,2,6,2,2.0,2.0,b'SB_36_LongA.png',2638.3957298252967,79151.87189475891,79151,2638.366666666667
134,2638.41746625,79152.5239875,79152,2638.4,2639.034013,79171.02039,79171,2639.0333333333333,2641.0685165,79232.055495,79232,2641.0666666666666,2.53775949231931,3,1,6,2,1.0,2.0,b'HB_4_ShortA.png',2643.6062759923193,79308.18827976957,79308,2643.6
135,2643.6126175,79308.378525,79308,2643.6,2644.1125147499997,79323.3754425,79323,2644.1,2646.14680025,79384.40400750001,79384,2646.133333333333,4.24044746888103,3,2,6,2,2.0,2.0,b'HB_54_ShortA.png',2650.387247718881,79511.61743156644,79511,2650.366666666667
136,2650.3978927499998,79511.9367825,79511,2650.366666666667,2651.04776425,79531.4329275,79531,2651.0333333333333,2653.0814674999997,79592.44402499999,79592,2653.0666666666666,5.816302126113442,3,1,2,1,2.0,3.0,b'HB_5_ShortA.png',2658.897769626113,79766.9330887834,79766,2658.866666666667
137,2658.9123299999997,79767.36989999999,79767,2658.9,2659.5122105,79785.366315,79785,2659.5,2661.546059,79846.38176999999,79846,2661.5333333333333,-0.34501959338376764,2,2,6,2,2.0,2.0,b'SB_35_ShortA.png',2661.201039406616,79836.03118219848,79836,2661.2
138,2661.21367,79836.41010000001,79836,2661.2,2661.78023025,79853.4069075,79853,2661.766666666667,2663.8139,79914.417,79914,2663.8,0.3115180328168208,1,2,2,1,1.0,3.0,b'NB_17_ShortA.png',2664.125418032817,79923.7625409845,79923,2664.1
139,2664.1329585,79923.988755,79923,2664.1,2664.666178,79939.98534,79939,2664.633333333333,2666.7005645,80001.01693499999,80001,2666.7,3.8751829689426813,3,1,6,2,1.0,2.0,b'HB_38_LongA.png',2670.5757474689426,80117.27242406827,80117,2670.5666666666666
140,2670.57940275,80117.3820825,80117,2670.5666666666666,2671.12928125,80133.8784375,80133,2671.1,2673.162942,80194.88825999999,80194,2673.133333333333,2.727402294272906,1,1,6,2,1.0,2.0,b'NB_11_ShortA.png',2675.890344294273,80276.71032882818,80276,2675.866666666667
141,2675.9061985,80277.185955,80277,2675.9,2676.4227742499997,80292.68322749999,80292,2676.4,2678.45612925,80353.68387749999,80353,2678.4333333333334,2.3741253510233946,2,2,2,1,1.0,3.0,b'SB_23_LongA.png',2680.830254601023,80424.9076380307,80424,2680.8
142,2680.84151075,80425.2453225,80425,2680.8333333333335,2681.37474225,80441.2422675,80441,2681.366666666667,2683.408477,80502.25431,80502,2683.4,-0.6462852503318572,1,1,2,1,2.0,3.0,b'NB_8_LongA.png',2682.762191749668,80482.86575249005,80482,2682.733333333333
143,2682.7746195,80483.238585,80483,2682.766666666667,2683.274528,80498.23584,80498,2683.266666666667,2685.30834,80559.2502,80559,2685.3,0.0,2,1,1,1,2.0,0.0,b'SB_10_ShortA.png',2685.30834,80559.2502,80559,2685.3
144,2683.85168975,80515.5506925,80515,2683.8333333333335,2684.4848952499997,80534.54685749998,80534,2684.4666666666667,2686.51932275,80595.5796825,80595,2686.5,4.813645319009083,1,2,6,2,2.0,2.0,b'NB_20_ShortA.png',2691.332968069009,80739.98904207027,80739,2691.3
145,2691.34146375,80740.2439125,80740,2691.3333333333335,2691.84136975,80755.2410925,80755,2691.8333333333335,2693.8748955,80816.24686500001,80816,2693.866666666667,2.0556458127102815,3,2,5,2,2.0,1.0,b'HB_59_ShortA.png',2695.9305413127104,80877.91623938132,80877,2695.9
146,2695.94309275,80878.2927825,80878,2695.9333333333334,2696.50964075,80895.2892225,80895,2696.5,2698.5433565,80956.300695,80956,2698.5333333333333,0.0,2,1,1,1,2.0,0.0,b'SB_16_shortA.png',2698.5433565,80956.300695,80956,2698.5333333333333
147,2699.6926335,80990.77900499999,80990,2699.6666666666665,2700.32586,81009.7758,81009,2700.3,2702.3599059999997,81070.79718,81070,2702.3333333333335,1.5452981335402,1,1,3,1,2.0,2.0,b'NB_14_LongA.png',2703.90520413354,81117.1561240062,81117,2703.9
148,2703.92617475,81117.7852425,81117,2703.9,2704.459411,81133.78232999999,81133,2704.4333333333334,2706.493196,81194.79587999999,81194,2706.4666666666667,1.1832045420160284,1,2,3,1,1.0,2.0,b'NB_16_ShortA.png',2707.676400542016,81230.29201626047,81230,2707.6666666666665
149,2707.6862965,81230.588895,81230,2707.6666666666665,2708.3028225,81249.08467499999,81249,2708.3,2710.33627175,81310.0881525,81310,2710.3333333333335,0.47794849054480437,1,2,6,2,2.0,2.0,b'NB_13_ShortA.png',2710.8142202405447,81324.42660721634,81324,2710.8
150,2710.8344469999997,81325.03340999999,81325,2710.8333333333335,2711.367663,81341.02989,81341,2711.366666666667,2713.401754,81402.05262,81402,2713.4,2.207276903631282,2,1,6,2,1.0,2.0,b'SB_24_LongA.png',2715.6090309036313,81468.27092710894,81468,2715.6
151,2715.623208,81468.69624,81468,2715.6,2716.13976825,81484.1930475,81484,2716.133333333333,2718.1731342499997,81545.1940275,81545,2718.1666666666665,0.0,1,1,1,1,2.0,0.0,b'NB_11_LongA.png',2718.1731342499997,81545.1940275,81545,2718.1666666666665
152,2718.4199237499997,81552.59771249999,81552,2718.4,2718.96981625,81569.0944875,81569,2718.9666666666667,2721.00320775,81630.0962325,81630,2721.0,0.0,3,2,1,1,1.0,0.0,b'HB_28_ShortA.png',2721.00320775,81630.0962325,81630,2721.0
153,2720.47866725,81614.3600175,81614,2720.4666666666667,2721.0285409999997,81630.85622999999,81630,2721.0,2723.06272675,81691.8818025,81691,2723.0333333333333,0.32686219131574035,1,2,4,1,1.0,1.0,b'NB_2_ShortA.png',2723.3895889413157,81701.68766823946,81701,2723.366666666667
154,2723.40493175,81702.14795249999,81702,2723.4,2723.93815975,81718.1447925,81718,2723.9333333333334,2725.9718347499997,81779.15504249999,81779,2725.9666666666667,0.14888268268259708,3,1,4,1,2.0,1.0,b'HB_49_ShortA.png',2726.1207174326823,81783.62152298047,81783,2726.1
155,2726.1299565,81783.898695,81783,2726.1,2726.74650075,81802.3950225,81802,2726.733333333333,2728.78096225,81863.4288675,81863,2728.766666666667,0.573138258929248,1,1,6,2,1.0,2.0,b'NB_23_LongA.png',2729.354100508929,81880.62301526788,81880,2729.3333333333335
156,2729.3641439999997,81880.92431999999,81880,2729.3333333333335,2729.8806474999997,81896.41942499999,81896,2729.866666666667,2731.9141285,81957.423855,81957,2731.9,3.6380075514898635,1,2,6,2,2.0,2.0,b'NB_3_LongA.png',2735.55213605149,82066.5640815447,82066,2735.5333333333333
157,2735.55769175,82066.73075249999,82066,2735.5333333333333,2736.12424125,82083.7272375,82083,2736.1,2738.1585379999997,82144.75613999998,82144,2738.133333333333,0.5636141431314172,2,2,6,2,2.0,2.0,b'SB_60_ShortA.png',2738.722152143131,82161.66456429393,82161,2738.7
158,2738.7388917499998,82162.1667525,82162,2738.733333333333,2739.2721147499997,82178.1634425,82178,2739.266666666667,2741.3057304999998,82239.171915,82239,2741.3,2.2294394982454833,1,1,3,1,2.0,2.0,b'NB_8_ShortA.png',2743.5351699982452,82306.05509994736,82306,2743.5333333333333
159,2743.54621075,82306.3863225,82306,2743.5333333333333,2744.096095,82322.88285,82322,2744.0666666666666,2746.1302312499997,82383.9069375,82383,2746.1,1.579956932735513,3,1,6,2,1.0,2.0,b'HB_46_ShortA.png',2747.7101881827352,82431.30564548206,82431,2747.7
160,2747.7178955,82431.536865,82431,2747.7,2748.28442,82448.5326,82448,2748.266666666667,2750.31851,82509.5553,82509,2750.3,2.406868936435785,3,1,6,2,1.0,2.0,b'HB_19_ShortA.png',2752.725378936436,82581.76136809308,82581,2752.7
161,2752.74468875,82582.3406625,82582,2752.733333333333,2753.39456225,82601.8368675,82601,2753.366666666667,2755.4278335,82662.835005,82662,2755.4,1.2474193832313176,1,2,6,2,2.0,2.0,b'NB_23_ShortA.png',2756.675252883231,82700.25758649694,82700,2756.6666666666665
162,2756.694189,82700.82566999999,82700,2756.6666666666665,2757.29406575,82718.8219725,82718,2757.266666666667,2759.327683,82779.83049,82779,2759.3,0.0,2,2,1,1,1.0,0.0,b'SB_6_ShortA.png',2759.327683,82779.83049,82779,2759.3
163,2761.89273475,82856.7820425,82856,2761.866666666667,2762.45928775,82873.7786325,82873,2762.4333333333334,2764.4939287499997,82934.81786249999,82934,2764.4666666666667,-0.6439190735400189,1,1,4,1,2.0,1.0,b'NB_9_ShortA.png',2763.8500096764596,82915.50029029378,82915,2763.8333333333335
164,2763.85641825,82915.6925475,82915,2763.8333333333335,2764.40630775,82932.1892325,82932,2764.4,2766.43969775,82993.1909325,82993,2766.4333333333334,-1.9307399735989748,1,2,6,2,2.0,2.0,b'NB_20_LongA.png',2764.508957776401,82935.26873329203,82935,2764.5
165,2764.519629,82935.58886999999,82935,2764.5,2765.10284025,82953.0852075,82953,2765.1,2767.1368657499997,83014.1059725,83014,2767.133333333333,4.616414289484965,1,1,4,1,2.0,1.0,b'NB_15_ShortA.png',2771.7532800394847,83152.59840118454,83152,2771.733333333333
166,2771.7636325,83152.908975,83152,2771.733333333333,2772.3468589999998,83170.40577,83170,2772.3333333333335,2774.3813569999998,83231.44071,83231,2774.366666666667,4.648395205920679,3,2,6,2,2.0,2.0,b'HB_53_LongA.png',2779.0297522059204,83370.89256617762,83370,2779.0
167,2779.0465525,83371.39657499999,83371,2779.0333333333333,2779.6297799999998,83388.89339999999,83388,2779.6,2781.66338675,83449.9016025,83449,2781.633333333333,0.961358168409788,1,2,4,1,1.0,1.0,b'NB_21_ShortA.png',2782.6247449184098,83478.7423475523,83478,2782.6
168,2782.6339245,83479.017735,83479,2782.633333333333,2783.2171495,83496.51448499999,83496,2783.2,2785.250765,83557.52295,83557,2785.233333333333,2.4723117022804217,2,2,7,2,2.0,3.0,b'SB_39_LongA.png',2787.72307670228,83631.69230106841,83631,2787.7
169,2787.7375715,83632.12714499999,83632,2787.733333333333,2788.3041292499997,83649.1238775,83649,2788.3,2790.33856325,83710.1568975,83710,2790.3333333333335,0.0,3,2,1,1,1.0,0.0,b'HB_56_LongA.png',2790.33856325,83710.1568975,83710,2790.3333333333335
170,2795.7747072499997,83873.24121749999,83873,2795.766666666667,2796.44123325,83893.2369975,83893,2796.4333333333334,2798.47572525,83954.2717575,83954,2798.4666666666667,3.356967445317423,3,2,5,2,2.0,1.0,b'HB_23_ShortA.png',2801.8326926953173,84054.98078085952,84054,2801.8
171,2801.852974,84055.58922,84055,2801.8333333333335,2802.43617375,84073.0852125,84073,2802.4333333333334,2804.46954325,84134.08629749999,84134,2804.4666666666667,5.912171134375967,2,1,5,2,1.0,1.0,b'SB_45_ShortA.png',2810.3817143843758,84311.45143153127,84311,2810.366666666667
172,2810.3898274999997,84311.69482499998,84311,2810.366666666667,2810.956397,84328.69191,84328,2810.9333333333334,2812.98988625,84389.6965875,84389,2812.9666666666667,-1.5487883613386657,2,1,5,2,1.0,1.0,b'SB_4_ShortA.png',2811.4410978886613,84343.23293665984,84343,2811.4333333333334
173,2811.46103825,84343.8311475,84343,2811.4333333333334,2811.9609235,84358.82770499999,84358,2811.9333333333334,2813.99431,84419.8293,84419,2813.9666666666667,0.1682700167002622,2,2,5,2,2.0,1.0,b'SB_18_LongA.png',2814.1625800167003,84424.877400501,84424,2814.133333333333
174,2814.176531,84425.29593000001,84425,2814.1666666666665,2814.72641225,84441.7923675,84441,2814.7,2816.76106475,84502.83194250001,84502,2816.733333333333,3.14650710078422,2,1,2,1,2.0,3.0,b'SB_17_ShortA.png',2819.9075718507843,84597.22715552353,84597,2819.9
175,2819.9290889999997,84597.87267,84597,2819.9,2820.495646,84614.86937999999,84614,2820.4666666666667,2822.52958275,84675.8874825,84675,2822.5,0.9250055684678955,2,1,2,1,2.0,3.0,b'SB_58_ShortA.png',2823.454588318468,84703.63764955403,84703,2823.4333333333334
176,2823.47318225,84704.19546749999,84704,2823.4666666666667,2824.03972975,84721.19189249999,84721,2824.0333333333333,2826.074048,84782.22144,84782,2826.0666666666666,0.9718120887555415,1,1,4,1,2.0,1.0,b'NB_10_LongA.png',2827.0458600887555,84811.37580266266,84811,2827.0333333333333
177,2827.057883,84811.73649,84811,2827.0333333333333,2827.607766,84828.23298,84828,2827.6,2829.64122425,84889.2367275,84889,2829.633333333333,0.7187688622798305,2,1,5,2,1.0,1.0,b'SB_9_LongA.png',2830.35999311228,84910.7997933684,84910,2830.3333333333335
178,2830.3700732499997,84911.10219749999,84911,2830.366666666667,2831.0199425,84930.598275,84930,2831.0,2833.0540834999997,84991.62250499999,84991,2833.0333333333333,-0.16641224054910708,2,1,5,2,1.0,1.0,b'SB_7_LongA.png',2832.8876712594506,84986.63013778352,84986,2832.866666666667
179,2832.9648125,84988.94437499999,84988,2832.9333333333334,2833.5350285,85006.050855,85006,2833.5333333333333,2835.5917565,85067.752695,85067,2835.5666666666666,3.5152323769580107,2,2,6,2,2.0,2.0,b'SB_30_LongA.png',2839.106988876958,85173.20966630874,85173,2839.1
180,2839.161986,85174.85958,85174,2839.133333333333,2839.79323175,85193.7969525,85193,2839.766666666667,2841.84510375,85255.3531125,85255,2841.8333333333335,2.7393692141777137,2,1,5,2,1.0,1.0,b'SB_30_ShortA.png',2844.5844729641776,85337.53418892533,85337,2844.5666666666666
