trial_num,fixcross_time,fixation_HZ,fixation_bin,fixation_regarded,start_time,Fstart_HZ,Fstart_bin,Fstart_regarded,stop_time,Fstop_HZ,Fstop_bin,Fstop_regarded,RT,boundary_type,key,resp_value,leftright,accuracy,confidence,frameName,response_time,response_HZ,response_bin,response_regarded
1,1990.39750975,59711.9252925,59711,1990.3666666666666,1990.9142092499999,59727.426277499995,59727,1990.9,1992.94821725,59788.4465175,59788,1992.9333333333334,2.3051519286818802,3,2,2,1,1.0,3.0,b'HB_37_LongA.png',1995.2533691786819,59857.60107536046,59857,1995.2333333333333
2,1995.2792184999998,59858.376554999995,59858,1995.2666666666667,1995.8625487499999,59875.8764625,59875,1995.8333333333333,1997.8960687499998,59936.88206249999,59936,1997.8666666666666,0.9265895753633231,2,2,6,2,2.0,2.0,b'SB_28_LongA.png',1998.8226583253631,59964.67974976089,59964,1998.8
3,1998.8323437499998,59964.970312499994,59964,1998.8,1999.365607,59980.96821,59980,1999.3333333333333,2001.399193,60041.97579,60041,2001.3666666666666,4.151623875601217,2,1,7,2,1.0,3.0,b'SB_7_ShortA.png',2005.5508168756012,60166.52450626803,60166,2005.5333333333333
4,2005.5621537499999,60166.864612499994,60166,2005.5333333333333,2006.1121329999999,60183.36399,60183,2006.1,2008.1456054999999,60244.36816499999,60244,2008.1333333333334,4.0940536223351955,1,1,2,1,2.0,3.0,b'NB_25_LongA.png',2012.239659122335,60367.18977367005,60367,2012.2333333333333
5,2012.2467565,60367.402695,60367,2012.2333333333333,2012.74669475,60382.4008425,60382,2012.7333333333333,2014.780256,60443.407680000004,60443,2014.7666666666667,2.0230832912493497,1,1,2,1,2.0,3.0,b'NB_9_ShortA.png',2016.8033392912494,60504.100178737484,60504,2016.8
6,2016.818421,60504.55263,60504,2016.8,2017.335175,60520.05525,60520,2017.3333333333333,2019.3683635,60581.050905,60581,2019.3666666666666,2.3688863017596304,2,1,6,2,1.0,2.0,b'SB_44_LongA.png',2021.7372498017596,60652.117494052785,60652,2021.7333333333333
7,2021.745671,60652.370129999996,60652,2021.7333333333333,2022.228946,60666.86838,60666,2022.2,2024.262581,60727.87743,60727,2024.2333333333333,2.6946467645466328,1,2,7,2,2.0,3.0,b'NB_28_ShortA.png',2026.9572277645466,60808.7168329364,60808,2026.9333333333334
8,2026.9616374999998,60808.84912499999,60808,2026.9333333333334,2027.5115979999998,60825.34793999999,60825,2027.5,2029.54521725,60886.3565175,60886,2029.5333333333333,2.957029708661139,2,1,6,2,1.0,2.0,b'SB_34_LongA.png',2032.502246958661,60975.06740875983,60975,2032.5
9,2032.518816,60975.56448,60975,2032.5,2033.052111,60991.56333,60991,2033.0333333333333,2035.0857287499998,61052.57186249999,61052,2035.0666666666666,3.101791595108807,1,2,6,2,2.0,2.0,b'NB_26_ShortA.png',2038.1875203451086,61145.62561035326,61145,2038.1666666666667
10,2038.1976822499998,61145.930467499995,61145,2038.1666666666667,2038.7476582499999,61162.4297475,61162,2038.7333333333333,2040.78117725,61223.4353175,61223,2040.7666666666667,1.3769566772971302,2,2,7,2,2.0,3.0,b'SB_22_ShortA.png',2042.158133927297,61264.74401781891,61264,2042.1333333333334
11,2042.1726192499998,61265.178577499995,61265,2042.1666666666667,2042.72253675,61281.6761025,61281,2042.7,2044.7560219999998,61342.68065999999,61342,2044.7333333333333,2.4224519117269665,3,1,7,2,1.0,3.0,b'HB_20_ShortA.png',2047.1784739117268,61415.3542173518,61415,2047.1666666666667
12,2047.1803417499998,61415.41025249999,61415,2047.1666666666667,2047.74698625,61432.4095875,61432,2047.7333333333333,2049.7804495,61493.413485,61493,2049.766666666667,1.9565660050138831,2,1,2,1,2.0,3.0,b'SB_38_ShortA.png',2051.737015505014,61552.110465150414,61552,2051.733333333333
13,2051.74424,61552.3272,61552,2051.733333333333,2052.227517,61566.825509999995,61566,2052.2,2054.26107425,61627.8322275,61627,2054.233333333333,1.9231273389887065,1,1,2,1,2.0,3.0,b'NB_7_ShortA.png',2056.184201588989,61685.526047669664,61685,2056.1666666666665
14,2056.19534975,61685.860492499996,61685,2056.1666666666665,2056.6786254999997,61700.35876499999,61700,2056.6666666666665,2058.712054,61761.36162,61761,2058.7,2.5309937526471913,3,2,2,1,1.0,3.0,b'HB_60_LongA.png',2061.2430477526473,61837.29143257942,61837,2061.233333333333
15,2061.25038525,61837.511557499995,61837,2061.233333333333,2061.80030875,61854.0092625,61854,2061.8,2063.83377975,61915.0133925,61915,2063.8333333333335,2.4256341587752104,3,2,3,1,1.0,2.0,b'HB_53_LongA.png',2066.259413908775,61987.78241726325,61987,2066.233333333333
16,2066.2734115,61988.202345,61988,2066.266666666667,2066.8065515,62004.196545,62004,2066.8,2068.8402175,62065.206525,62065,2068.8333333333335,2.097161148674786,1,1,3,1,2.0,2.0,b'NB_16_LongA.png',2070.937378648675,62128.121359460245,62128,2070.9333333333334
17,2070.946126,62128.38378,62128,2070.9333333333334,2071.5127585,62145.382755,62145,2071.5,2073.54630775,62206.3892325,62206,2073.5333333333333,2.2482543557416648,3,2,3,1,1.0,2.0,b'HB_54_LongA.png',2075.7945621057415,62273.83686317225,62273,2075.766666666667
18,2075.802724,62274.08172,62274,2075.8,2076.3193352499998,62289.580057499996,62289,2076.3,2078.352918,62350.58754,62350,2078.3333333333335,1.866968953050673,1,1,3,1,2.0,2.0,b'NB_30_ShortA.png',2080.2198869530507,62406.59660859152,62406,2080.2
19,2080.2349045,62407.047135,62407,2080.233333333333,2080.8014485,62424.043455,62424,2080.8,2082.835052,62485.05156,62485,2082.8333333333335,2.5444949995726347,3,2,3,1,1.0,2.0,b'HB_17_ShortA.png',2085.3795469995725,62561.38640998718,62561,2085.366666666667
20,2085.38583575,62561.575072499996,62561,2085.366666666667,2085.98581225,62579.5743675,62579,2085.9666666666667,2088.01934975,62640.5804925,62640,2088.0,1.478637624764815,1,1,3,1,2.0,2.0,b'NB_29_ShortA.png',2089.4979873747648,62684.93962124294,62684,2089.4666666666667
21,2089.5076369999997,62685.22910999999,62685,2089.5,2090.09088075,62702.726422499996,62702,2090.0666666666666,2092.1244625,62763.733875,62763,2092.1,2.0097719186451286,3,1,6,2,1.0,2.0,b'HB_22_ShortA.png',2094.134234418645,62824.02703255935,62824,2094.133333333333
22,2094.1436555,62824.309665,62824,2094.133333333333,2094.693612,62840.80836,62840,2094.6666666666665,2096.7270825,62901.812475,62901,2096.7,2.198806946631521,3,1,6,2,1.0,2.0,b'HB_31_LongA.png',2098.9258894466316,62967.776683398944,62967,2098.9
23,2098.9363435,62968.090305,62968,2098.9333333333334,2099.51960625,62985.5881875,62985,2099.5,2101.55305475,63046.591642499996,63046,2101.5333333333333,2.5152556381653994,1,2,7,2,2.0,3.0,b'NB_15_LongA.png',2104.068310388165,63122.04931164496,63122,2104.0666666666666
24,2104.08407875,63122.52236250001,63122,2104.0666666666666,2104.60067425,63138.0202275,63138,2104.6,2106.649735,63199.49205,63199,2106.633333333333,2.0323091009631753,1,2,6,2,2.0,2.0,b'NB_13_ShortA.png',2108.682044100963,63260.461323028896,63260,2108.6666666666665
25,2108.69119825,63260.735947500005,63260,2108.6666666666665,2109.207816,63276.23448,63276,2109.2,2111.241299,63337.23896999999,63337,2111.233333333333,0.9550531813874841,1,1,2,1,2.0,3.0,b'NB_17_ShortA.png',2112.1963521813873,63365.890565441616,63365,2112.1666666666665
26,2112.2097575,63366.29272499999,63366,2112.2,2112.826356,63384.79068,63384,2112.8,2114.859931,63445.79793,63445,2114.8333333333335,3.5387116046622396,2,2,6,2,2.0,2.0,b'SB_27_ShortA.png',2118.398642604662,63551.95927813987,63551,2118.366666666667
27,2118.4105905,63552.317715000005,63552,2118.4,2119.010561,63570.31683,63570,2119.0,2121.04428275,63631.3284825,63631,2121.0333333333333,2.0534541902597994,1,2,6,2,2.0,2.0,b'NB_21_LongA.png',2123.09773694026,63692.932108207795,63692,2123.0666666666666
28,2123.10037225,63693.0111675,63693,2123.1,2123.6503777499997,63709.51133249999,63709,2123.633333333333,2125.68387875,63770.5163625,63770,2125.6666666666665,2.736493418458849,1,2,6,2,2.0,2.0,b'NB_20_ShortA.png',2128.420372168459,63852.611165053764,63852,2128.4
29,2128.4275549999998,63852.826649999995,63852,2128.4,2128.9941715,63869.825145,63869,2128.9666666666667,2131.02776625,63930.83298749999,63930,2131.0,2.5117060125339776,3,1,6,2,1.0,2.0,b'HB_57_LongA.png',2133.5394722625338,64006.18416787601,64006,2133.5333333333333
30,2133.55527175,64006.6581525,64006,2133.5333333333333,2134.12186375,64023.655912500006,64023,2134.1,2136.1554822499997,64084.66446749999,64084,2136.133333333333,2.344624724937603,3,1,6,2,1.0,2.0,b'HB_29_ShortA.png',2138.5001069749374,64155.00320924812,64155,2138.5
31,2138.50489925,64155.1469775,64155,2138.5,2139.0381844999997,64171.14553499999,64171,2139.0333333333333,2141.072051,64232.161530000005,64232,2141.0666666666666,2.018142595887184,2,2,7,2,2.0,3.0,b'SB_8_ShortA.png',2143.0901935958873,64292.70580787662,64292,2143.0666666666666
32,2143.1050735,64293.152205,64293,2143.1,2143.65496425,64309.6489275,64309,2143.633333333333,2145.688498,64370.65494,64370,2145.6666666666665,1.96424880460836,1,1,3,1,2.0,2.0,b'NB_21_ShortA.png',2147.6527468046083,64429.58240413825,64429,2147.633333333333
33,2147.65605125,64429.6815375,64429,2147.633333333333,2148.20614675,64446.184402499995,64446,2148.2,2150.23947675,64507.1843025,64507,2150.233333333333,2.3397956036496907,1,1,3,1,2.0,2.0,b'NB_19_LongA.png',2152.5792723536497,64577.37817060949,64577,2152.5666666666666
34,2152.5844752499997,64577.534257499996,64577,2152.5666666666666,2153.08449375,64592.5348125,64592,2153.0666666666666,2155.1181834999998,64653.545504999995,64653,2155.1,1.648854012368247,2,1,3,1,2.0,2.0,b'SB_46_ShortA.png',2156.767037512368,64703.01112537104,64703,2156.766666666667
35,2156.77269075,64703.1807225,64703,2156.766666666667,2157.2726685,64718.18005499999,64718,2157.266666666667,2159.3061485,64779.184454999995,64779,2159.3,2.1353735509328544,2,1,3,1,2.0,2.0,b'SB_53_LongA.png',2161.4415220509327,64843.24566152798,64843,2161.4333333333334
36,2161.4550725,64843.652174999996,64843,2161.4333333333334,2162.021723,64860.65169,64860,2162.0,2164.05516375,64921.654912499995,64921,2164.0333333333333,0.234632832929492,2,1,6,2,1.0,2.0,b'SB_16_ShortA.png',2164.2897965829293,64928.69389748788,64928,2164.266666666667
37,2164.2959889999997,64928.879669999995,64928,2164.266666666667,2164.8293544999997,64944.880634999994,64944,2164.8,2166.86276675,65005.8830025,65005,2166.8333333333335,2.559252907289192,3,1,6,2,1.0,2.0,b'HB_59_LongA.png',2169.422019657289,65082.660589718675,65082,2169.4
38,2169.43316275,65082.9948825,65082,2169.4,2169.9997774999997,65099.99332499999,65099,2169.9666666666667,2172.033363,65161.00089,65161,2172.0333333333333,2.1561194746755064,3,1,6,2,1.0,2.0,b'HB_32_LongA.png',2174.1894824746755,65225.68447424027,65225,2174.1666666666665
39,2174.1989715,65225.969144999995,65225,2174.1666666666665,2174.79886925,65243.966077499994,65243,2174.766666666667,2176.832382,65304.97146,65304,2176.8,2.0456657637842,3,1,6,2,1.0,2.0,b'HB_8_LongA.png',2178.8780477637843,65366.34143291353,65366,2178.866666666667
40,2178.894665,65366.839949999994,65366,2178.866666666667,2179.4613127499997,65383.839382499995,65383,2179.4333333333334,2181.494861,65444.845830000006,65444,2181.4666666666667,1.9798806516919285,1,1,3,1,2.0,2.0,b'NB_1_ShortA.png',2183.474741651692,65504.24224955076,65504,2183.4666666666667
41,2183.477423,65504.32268999999,65504,2183.4666666666667,2184.0440372499997,65521.32111749999,65521,2184.0333333333333,2186.0777224999997,65582.331675,65582,2186.0666666666666,2.8299626645166427,2,2,6,2,2.0,2.0,b'SB_39_ShortA.png',2188.9076851645164,65667.2305549355,65667,2188.9
42,2188.9139425,65667.41827499999,65667,2188.9,2189.413902,65682.41705999999,65682,2189.4,2191.447405,65743.42215,65743,2191.4333333333334,1.609821991296485,2,1,2,1,2.0,3.0,b'SB_33_LongA.png',2193.0572269912964,65791.7168097389,65791,2193.0333333333333
43,2193.07230175,65792.1690525,65792,2193.0666666666666,2193.5888895,65807.66668499999,65807,2193.5666666666666,2195.622577,65868.67731,65868,2195.6,1.246743019670248,2,2,6,2,2.0,2.0,b'SB_26_LongA.png',2196.8693200196703,65906.0796005901,65906,2196.866666666667
44,2196.8768755,65906.306265,65906,2196.866666666667,2197.49349725,65924.8049175,65924,2197.4666666666667,2199.52698225,65985.8094675,65985,2199.5,2.3455904650036246,3,2,3,1,1.0,2.0,b'HB_16_ShortA.png',2201.8725727150036,66056.17718145011,66056,2201.866666666667
45,2201.8808477499997,66056.4254325,66056,2201.866666666667,2202.3974857499998,66071.9245725,66071,2202.366666666667,2204.431109,66132.93327000001,66132,2204.4,2.2616834964137524,3,2,6,2,2.0,2.0,b'HB_40_LongA.png',2206.692792496414,66200.78377489242,66200,2206.6666666666665
46,2206.700535,66201.01605,66201,2206.7,2207.20043325,66216.0129975,66216,2207.2,2209.2341994999997,66277.02598499999,66277,2209.233333333333,0.8674812864046544,1,1,2,1,2.0,3.0,b'NB_10_ShortA.png',2210.1016807864044,66303.05042359213,66303,2210.1
47,2210.10770775,66303.2312325,66303,2210.1,2210.65765225,66319.7295675,66319,2210.633333333333,2212.6914294999997,66380.74288499999,66380,2212.6666666666665,1.7675523979123682,1,2,6,2,2.0,2.0,b'NB_22_ShortA.png',2214.458981897912,66433.76945693736,66433,2214.4333333333334
48,2214.47152375,66434.1457125,66434,2214.4666666666667,2215.0048395,66450.145185,66450,2215.0,2217.03839375,66511.1518125,66511,2217.0333333333333,1.95850466680713,1,2,7,2,2.0,3.0,b'NB_3_ShortA.png',2218.996898416807,66569.90695250421,66569,2218.9666666666667
49,2219.00277075,66570.0831225,66570,2219.0,2219.552724,66586.58172,66586,2219.5333333333333,2221.586256,66647.58768,66647,2221.5666666666666,1.6769958105869591,2,2,3,1,1.0,2.0,b'SB_9_LongA.png',2223.263251810587,66697.8975543176,66697,2223.233333333333
50,2223.273483,66698.20449,66698,2223.266666666667,2223.7734392499997,66713.20317749999,66713,2223.766666666667,2225.807047,66774.21140999999,66774,2225.8,1.1811297442764044,1,2,6,2,2.0,2.0,b'NB_7_LongA.png',2226.988176744276,66809.64530232828,66809,2226.9666666666667
51,2226.9988065,66809.964195,66809,2226.9666666666667,2227.53207725,66825.9623175,66825,2227.5,2229.5658055,66886.97416499999,66886,2229.5333333333333,1.8131607186514884,2,2,6,2,2.0,2.0,b'SB_52_ShortA.png',2231.3789662186514,66941.36898655954,66941,2231.366666666667
52,2231.3940239999997,66941.82071999999,66941,2231.366666666667,2231.9772909999997,66959.31872999998,66959,2231.9666666666667,2234.0109075,67020.327225,67020,2234.0,1.5047922455705702,2,2,3,1,1.0,2.0,b'SB_37_LongA.png',2235.5156997455706,67065.47099236712,67065,2235.5
53,2235.529258,67065.87774,67065,2235.5,2236.0791865,67082.375595,67082,2236.0666666666666,2238.1126635,67143.37990500001,67143,2238.1,0.9478960975538939,1,1,3,1,2.0,2.0,b'NB_5_LongA.png',2239.060559597554,67171.81678792663,67171,2239.0333333333333
54,2239.0702335,67172.107005,67172,2239.0666666666666,2239.670112,67190.10336,67190,2239.6666666666665,2241.7035465,67251.106395,67251,2241.7,2.52800388680771,1,2,6,2,2.0,2.0,b'NB_25_ShortA.png',2244.2315503868076,67326.94651160423,67326,2244.2
55,2244.24039175,67327.2117525,67327,2244.233333333333,2244.75700675,67342.7102025,67342,2244.733333333333,2246.7907105,67403.721315,67403,2246.766666666667,1.826006567105651,3,2,7,2,2.0,3.0,b'HB_58_LongA.png',2248.6167170671056,67458.50151201317,67458,2248.6
56,2248.621749,67458.65247,67458,2248.6,2249.1383865,67474.15159499999,67474,2249.133333333333,2251.171953,67535.15859,67535,2251.1666666666665,2.3241109263617545,3,1,3,1,2.0,2.0,b'HB_51_ShortA.png',2253.496063926362,67604.88191779086,67604,2253.4666666666667
57,2253.499365,67604.98095,67604,2253.4666666666667,2254.082602,67622.47806,67622,2254.0666666666666,2256.11614325,67683.48429749999,67683,2256.1,0.4142726834397763,2,2,3,1,1.0,2.0,b'SB_6_ShortA.png',2256.5304159334396,67695.91247800319,67695,2256.5
58,2256.5469205,67696.407615,67696,2256.5333333333333,2257.1303332499997,67713.90999749998,67713,2257.1,2259.16387325,67774.9161975,67774,2259.133333333333,2.306440502870828,3,1,3,1,2.0,2.0,b'HB_7_ShortA.png',2261.470313752871,67844.10941258613,67844,2261.4666666666667
59,2261.48515275,67844.5545825,67844,2261.4666666666667,2262.0016895,67860.050685,67860,2262.0,2264.0351634999997,67921.054905,67921,2264.0333333333333,1.4132786134723574,2,1,3,1,2.0,2.0,b'SB_12_LongA.png',2265.448442113472,67963.45326340417,67963,2265.4333333333334
60,2265.46210575,67963.8631725,67963,2265.4333333333334,2265.995383,67979.86149,67979,2265.9666666666667,2268.0289574999997,68040.868725,68040,2268.0,1.791763786925003,3,1,3,1,2.0,2.0,b'HB_9_LongA.png',2269.8207212869247,68094.62163860774,68094,2269.8
61,2269.83405275,68095.0215825,68095,2269.8333333333335,2270.33400025,68110.0200075,68110,2270.3333333333335,2272.36750575,68171.0251725,68171,2272.366666666667,2.311556415166706,1,2,6,2,2.0,2.0,b'NB_8_ShortA.png',2274.6790621651667,68240.371864955,68240,2274.6666666666665
62,2274.6866245,68240.598735,68240,2274.6666666666665,2275.25323575,68257.5970725,68257,2275.233333333333,2277.286713,68318.60139,68318,2277.266666666667,2.0231062811799347,2,1,3,1,2.0,2.0,b'SB_14_LongA.png',2279.30981928118,68379.2945784354,68379,2279.3
63,2279.321408,68379.64223999999,68379,2279.3,2279.85472825,68395.6418475,68395,2279.8333333333335,2281.8883379999997,68456.65014,68456,2281.866666666667,1.6154685823712498,1,1,3,1,2.0,2.0,b'NB_2_ShortA.png',2283.503806582371,68505.11419747114,68505,2283.5
64,2283.51921925,68505.5765775,68505,2283.5,2284.06914925,68522.0744775,68522,2284.0666666666666,2286.1025815,68583.07744499999,68583,2286.1,1.068535909987986,1,1,3,1,2.0,2.0,b'NB_6_ShortA.png',2287.171117409988,68615.13352229963,68615,2287.1666666666665
65,2287.183397,68615.50190999999,68615,2287.1666666666665,2287.7166325,68631.498975,68631,2287.7,2289.75011275,68692.5033825,68692,2289.733333333333,1.6030879656318575,3,1,3,1,2.0,2.0,b'HB_19_LongA.png',2291.353200715632,68740.59602146895,68740,2291.3333333333335
66,2291.3610485,68740.83145499999,68740,2291.3333333333335,2291.91100825,68757.33024750001,68757,2291.9,2293.9446595,68818.339785,68818,2293.9333333333334,2.1495411607902497,3,1,3,1,2.0,2.0,b'HB_4_ShortA.png',2296.09420066079,68882.82601982371,68882,2296.0666666666666
67,2296.1002715,68883.008145,68883,2296.1,2296.6334315,68899.002945,68899,2296.633333333333,2298.66692975,68960.0078925,68960,2298.6666666666665,2.9058709791861475,3,1,3,1,2.0,2.0,b'HB_26_LongA.png',2301.572800729186,69047.18402187558,69047,2301.5666666666666
68,2301.5906995,69047.720985,69047,2301.5666666666666,2302.1905395,69065.716185,69065,2302.1666666666665,2304.22417525,69126.7252575,69126,2304.2,2.721581119345501,1,2,7,2,2.0,3.0,b'NB_18_ShortA.png',2306.9457563693454,69208.37269108037,69208,2306.9333333333334
69,2306.9610045,69208.830135,69208,2306.9333333333334,2307.44439375,69223.3318125,69223,2307.4333333333334,2309.4779572499997,69284.3387175,69284,2309.4666666666667,2.48214941797778,3,1,3,1,2.0,2.0,b'HB_11_LongA.png',2311.9601066679775,69358.80320003933,69358,2311.9333333333334
70,2311.97604225,69359.2812675,69359,2311.9666666666667,2312.526016,69375.78047999999,69375,2312.5,2314.559473,69436.78418999999,69436,2314.5333333333333,1.2700624861754477,2,2,3,1,1.0,2.0,b'SB_41_ShortA.png',2315.8295354861752,69474.88606458525,69474,2315.8
71,2315.8383645,69475.150935,69475,2315.8333333333335,2316.37171025,69491.1513075,69491,2316.366666666667,2318.4051462499997,69552.15438749999,69552,2318.4,1.6029468062333763,2,2,6,2,2.0,2.0,b'SB_47_LongA.png',2320.008093056233,69600.242791687,69600,2320.0
72,2320.01196475,69600.3589425,69600,2320.0,2320.51198825,69615.3596475,69615,2320.5,2322.545592,69676.36776,69676,2322.5333333333333,1.7950346074067056,2,1,2,1,2.0,3.0,b'SB_59_ShortA.png',2324.3406266074066,69730.2187982222,69730,2324.3333333333335
73,2324.346994,69730.40982,69730,2324.3333333333335,2324.84699075,69745.4097225,69745,2324.8333333333335,2326.8807014999998,69806.421045,69806,2326.866666666667,2.2076096809469163,2,1,3,1,2.0,2.0,b'SB_10_LongA.png',2329.0883111809467,69872.6493354284,69872,2329.0666666666666
74,2329.0939765,69872.819295,69872,2329.0666666666666,2329.610611,69888.31833000001,69888,2329.6,2331.6441795,69949.325385,69949,2331.633333333333,2.1428957423195243,2,2,3,1,1.0,2.0,b'SB_36_ShortA.png',2333.7870752423196,70013.61225726959,70013,2333.766666666667
75,2333.8049435,70014.148305,70014,2333.8,2334.33826025,70030.1478075,70030,2334.3333333333335,2336.37178675,70091.1536025,70091,2336.366666666667,3.0357133368961513,3,2,3,1,1.0,2.0,b'HB_27_LongA.png',2339.407500086896,70182.22500260688,70182,2339.4
76,2339.4117355,70182.352065,70182,2339.4,2339.895072,70196.85216,70196,2339.866666666667,2341.92870025,70257.8610075,70257,2341.9,2.651684482116252,1,2,6,2,2.0,2.0,b'NB_26_LongA.png',2344.5803847321163,70337.41154196349,70337,2344.5666666666666
77,2344.59520325,70337.8560975,70337,2344.5666666666666,2345.16179575,70354.8538725,70354,2345.133333333333,2347.19535425,70415.8606275,70415,2347.1666666666665,1.5727415760047734,2,1,3,1,2.0,2.0,b'SB_35_ShortA.png',2348.768095826005,70463.04287478015,70463,2348.766666666667
78,2348.7823599999997,70463.4708,70463,2348.766666666667,2349.29899025,70478.9697075,70478,2349.266666666667,2351.33268525,70539.98055749999,70539,2351.3,1.7259281282313168,1,2,7,2,2.0,3.0,b'NB_29_LongA.png',2353.0586133782313,70591.75840134693,70591,2353.0333333333333
79,2353.07412075,70592.2236225,70592,2353.0666666666666,2353.64066675,70609.2200025,70609,2353.633333333333,2355.6741655,70670.224965,70670,2355.6666666666665,1.100010100984946,2,2,7,2,2.0,3.0,b'SB_48_LongA.png',2356.774175600985,70703.22526802955,70703,2356.766666666667
80,2356.7835215,70703.505645,70703,2356.766666666667,2357.28339,70718.50170000001,70718,2357.266666666667,2359.317021,70779.51062999999,70779,2359.3,2.038191435392946,1,1,7,2,1.0,3.0,b'NB_23_ShortA.png',2361.355212435393,70840.65637306178,70840,2361.3333333333335
81,2361.371878,70841.15634,70841,2361.366666666667,2361.88861775,70856.65853249999,70856,2361.866666666667,2363.9218699999997,70917.6561,70917,2363.9,1.9884405767079443,3,1,3,1,2.0,2.0,b'HB_3_LongA.png',2365.9103105767076,70977.30931730123,70977,2365.9
82,2365.9248039999998,70977.74411999999,70977,2365.9,2366.458157,70993.74471,70993,2366.4333333333334,2368.4915735,71054.74720499999,71054,2368.4666666666667,1.0594682632945478,2,1,3,1,2.0,2.0,b'SB_57_LongA.png',2369.5510417632945,71086.53125289883,71086,2369.5333333333333
83,2369.555147,71086.65441,71086,2369.5333333333333,2370.055094,71101.65281999999,71101,2370.0333333333333,2372.08854725,71162.6564175,71162,2372.0666666666666,2.4072244858834893,2,1,2,1,2.0,3.0,b'SB_29_ShortA.png',2374.4957717358834,71234.8731520765,71234,2374.4666666666667
84,2374.5010865,71235.032595,71235,2374.5,2375.00109575,71250.0328725,71250,2375.0,2377.03470075,71311.0410225,71311,2377.0333333333333,2.362025813665241,3,2,3,1,1.0,2.0,b'HB_21_ShortA.png',2379.396726563665,71381.90179690995,71381,2379.366666666667
85,2379.41455625,71382.4366875,71382,2379.4,2379.93125475,71397.9376425,71397,2379.9,2381.96461925,71458.9385775,71458,2381.9333333333334,2.366921710083261,1,1,2,1,2.0,3.0,b'NB_12_ShortA.png',2384.331540960083,71529.9462288025,71529,2384.3
86,2384.33697425,71530.1092275,71530,2384.3333333333335,2384.92027725,71547.6083175,71547,2384.9,2386.9538387499997,71608.61516249999,71608,2386.9333333333334,1.9401435183826834,3,1,3,1,2.0,2.0,b'HB_12_LongA.png',2388.8939822683824,71666.81946805147,71666,2388.866666666667
87,2388.904894,71667.14682,71667,2388.9,2389.4380455,71683.141365,71683,2389.4333333333334,2391.4717105,71744.151315,71744,2391.4666666666667,2.9315599123947322,3,1,7,2,1.0,3.0,b'HB_48_ShortA.png',2394.4032704123947,71832.09811237184,71832,2394.4
88,2394.409102,71832.27306,71832,2394.4,2394.9422824999997,71848.26847499999,71848,2394.9333333333334,2396.9760042499997,71909.2801275,71909,2396.9666666666667,1.9066120458301157,3,2,3,1,1.0,2.0,b'HB_33_ShortA.png',2398.88261629583,71966.4784888749,71966,2398.866666666667
89,2398.8914812499997,71966.74443749999,71966,2398.866666666667,2399.39147025,71981.74410750001,71981,2399.366666666667,2401.4251007499997,72042.7530225,72042,2401.4,1.685599819291383,2,2,3,1,1.0,2.0,b'SB_31_ShortA.png',2403.110700569291,72093.32101707874,72093,2403.1
90,2403.11447825,72093.4343475,72093,2403.1,2403.64765975,72109.4297925,72109,2403.633333333333,2405.68121825,72170.4365475,72170,2405.6666666666665,1.9258974778931588,1,1,3,1,2.0,2.0,b'NB_4_ShortA.png',2407.607115727893,72228.21347183679,72228,2407.6
91,2407.61638775,72228.4916325,72228,2407.6,2408.1330445,72243.991335,72243,2408.1,2410.16662375,72304.99871249999,72304,2410.133333333333,2.396381543483585,3,1,3,1,2.0,2.0,b'HB_50_LongA.png',2412.5630052934835,72376.8901588045,72376,2412.5333333333333
92,2412.5688225,72377.064675,72377,2412.5666666666666,2413.118764,72393.56292,72393,2413.1,2415.1524695,72454.574085,72454,2415.133333333333,2.176052760332823,1,2,3,1,1.0,2.0,b'NB_27_ShortA.png',2417.3285222603326,72519.85566780998,72519,2417.3
93,2417.3316852499997,72519.9505575,72519,2417.3,2417.89837175,72536.9511525,72536,2417.866666666667,2419.932006,72597.96018,72597,2419.9,2.504589554388076,3,2,3,1,1.0,2.0,b'HB_23_ShortA.png',2422.436595554388,72673.09786663164,72673,2422.4333333333334
94,2422.44067675,72673.2203025,72673,2422.4333333333334,2422.97400175,72689.2200525,72689,2422.9666666666667,2425.007591,72750.22773,72750,2425.0,2.5868284879252315,2,2,3,1,1.0,2.0,b'SB_42_LongA.png',2427.5944194879253,72827.83258463776,72827,2427.5666666666666
95,2427.6108409999997,72828.32522999999,72828,2427.6,2428.1608885,72844.826655,72844,2428.133333333333,2430.19435275,72905.8305825,72905,2430.1666666666665,1.9641818564850837,3,2,6,2,2.0,2.0,b'HB_10_ShortA.png',2432.158534606485,72964.75603819455,72964,2432.133333333333
96,2432.1727352499997,72965.18205749999,72965,2432.1666666666665,2432.7059677499997,72981.17903249999,72981,2432.7,2434.73960375,73042.18811249999,73042,2434.733333333333,2.741555336397141,3,2,6,2,2.0,2.0,b'HB_5_ShortA.png',2437.481159086397,73124.4347725919,73124,2437.4666666666667
97,2437.49867425,73124.9602275,73124,2437.4666666666667,2438.0985407499998,73142.9562225,73142,2438.0666666666666,2440.18790825,73205.6372475,73205,2440.1666666666665,2.532610301161185,2,2,6,2,2.0,2.0,b'SB_20_LongA.png',2442.720518551161,73281.61555653483,73281,2442.7
98,2442.7351915,73282.05574499999,73282,2442.733333333333,2443.28522425,73298.55672749999,73298,2443.266666666667,2445.31853625,73359.5560875,73359,2445.3,3.1968367842491716,1,1,3,1,2.0,2.0,b'NB_30_LongA.png',2448.515373034249,73455.46119102747,73455,2448.5
99,2448.52942325,73455.8826975,73455,2448.5,2449.0961585,73472.884755,73472,2449.0666666666666,2451.1295075,73533.88522499999,73533,2451.1,2.078797925496474,1,1,3,1,2.0,2.0,b'NB_23_LongA.png',2453.2083054254963,73596.24916276489,73596,2453.2
100,2453.2167675,73596.503025,73596,2453.2,2453.7500099999997,73612.50029999999,73612,2453.733333333333,2455.783546,73673.50638,73673,2455.766666666667,2.8322012762073427,1,2,3,1,1.0,2.0,b'NB_22_LongA.png',2458.6157472762075,73758.47241828623,73758,2458.6
101,2458.6314865,73758.944595,73758,2458.6,2459.21488475,73776.4465425,73776,2459.2,2461.2481675,73837.445025,73837,2461.233333333333,2.1014477042481303,3,1,6,2,1.0,2.0,b'HB_44_ShortA.png',2463.349615204248,73900.48845612744,73900,2463.3333333333335
102,2463.3529025,73900.58707499999,73900,2463.3333333333335,2463.8862369999997,73916.58711,73916,2463.866666666667,2465.91952925,73977.5858775,73977,2465.9,2.859408288029954,2,1,3,1,2.0,2.0,b'SB_49_ShortA.png',2468.77893753803,74063.3681261409,74063,2468.766666666667
103,2468.79312275,74063.79368249999,74063,2468.766666666667,2469.3264135,74079.792405,74079,2469.3,2471.3597904999997,74140.79371499999,74140,2471.3333333333335,1.8693528610747308,3,1,3,1,2.0,2.0,b'HB_36_ShortA.png',2473.2291433610744,74196.87430083223,74196,2473.2
104,2473.23828775,74197.1486325,74197,2473.233333333333,2473.8050165,74214.150495,74214,2473.8,2475.83867175,74275.1601525,74275,2475.8333333333335,2.3763149448204786,3,2,3,1,1.0,2.0,b'HB_42_LongA.png',2478.2149866948203,74346.44960084461,74346,2478.2
105,2478.21903075,74346.5709225,74346,2478.2,2478.76908375,74363.0725125,74363,2478.766666666667,2480.8026624999998,74424.079875,74424,2480.8,2.603206349303946,2,2,3,1,1.0,2.0,b'SB_13_LongA.png',2483.4058688493037,74502.17606547911,74502,2483.4
106,2483.4125744999997,74502.37723499999,74502,2483.4,2483.9457024999997,74518.37107499999,74518,2483.9333333333334,2485.9794205,74579.382615,74579,2485.9666666666667,2.2556398110464215,3,2,3,1,1.0,2.0,b'HB_52_ShortA.png',2488.2350603110463,74647.05180933139,74647,2488.233333333333
107,2488.2413505,74647.240515,74647,2488.233333333333,2488.7580355,74662.741065,74662,2488.733333333333,2490.79143775,74723.7431325,74723,2490.766666666667,2.349806274753064,3,2,3,1,1.0,2.0,b'HB_6_ShortA.png',2493.141244024753,74794.2373207426,74794,2493.133333333333
108,2493.14874125,74794.4622375,74794,2493.133333333333,2493.6653687499997,74809.96106249999,74809,2493.633333333333,2495.6989074999997,74870.96722499999,74870,2495.6666666666665,1.8390848904382437,2,1,3,1,2.0,2.0,b'SB_56_ShortA.png',2497.537992390438,74926.13977171313,74926,2497.5333333333333
109,2497.5451705,74926.355115,74926,2497.5333333333333,2498.0951259999997,74942.85377999999,74942,2498.0666666666666,2500.12873025,75003.8619075,75003,2500.1,2.1697241254150867,3,2,3,1,1.0,2.0,b'HB_34_LongA.png',2502.298454375415,75068.95363126246,75068,2502.266666666667
110,2502.316737,75069.50211,75069,2502.3,2502.8499322499997,75085.49796749999,75085,2502.8333333333335,2504.8835875,75146.507625,75146,2504.866666666667,2.135754634393379,2,2,3,1,1.0,2.0,b'SB_58_ShortA.png',2507.0193421343934,75210.5802640318,75210,2507.0
111,2507.0321787499997,75210.96536249999,75210,2507.0,2507.64881575,75229.4644725,75229,2507.633333333333,2509.682301,75290.46903,75290,2509.6666666666665,2.7176449217367917,3,1,3,1,2.0,2.0,b'HB_14_ShortA.png',2512.3999459217366,75371.9983776521,75371,2512.366666666667
112,2512.4145452499997,75372.43635749999,75372,2512.4,2513.0312675,75390.938025,75390,2513.0,2515.06467325,75451.9401975,75451,2515.0333333333333,2.360819556051865,3,1,3,1,2.0,2.0,b'HB_18_ShortA.png',2517.425492806052,75522.76478418155,75522,2517.4
113,2517.4382687499997,75523.1480625,75523,2517.4333333333334,2517.97164225,75539.1492675,75539,2517.9666666666667,2520.00520725,75600.1562175,75600,2520.0,2.6192112469580024,1,1,3,1,2.0,2.0,b'NB_24_ShortA.png',2522.624418496958,75678.73255490874,75678,2522.6
114,2522.6434019999997,75679.30205999999,75679,2522.633333333333,2523.22678275,75696.80348249999,75696,2523.2,2525.260265,75757.80795,75757,2525.233333333333,2.3262363427784294,2,1,3,1,2.0,2.0,b'SB_1_ShortA.png',2527.5865013427783,75827.59504028336,75827,2527.5666666666666
115,2527.59236475,75827.77094249999,75827,2527.5666666666666,2528.2091,75846.273,75846,2528.2,2530.2427155,75907.28146500001,75907,2530.233333333333,2.546642797999084,3,2,3,1,1.0,2.0,b'HB_15_LongA.png',2532.789358297999,75983.68074893998,75983,2532.766666666667
116,2532.7963944999997,75983.89183499999,75983,2532.766666666667,2533.329785,75999.89355,75999,2533.3,2535.3631969999997,76060.89590999999,76060,2535.3333333333335,2.0119643062353134,2,1,3,1,2.0,2.0,b'SB_25_LongA.png',2537.375161306235,76121.25483918705,76121,2537.366666666667
117,2537.393161,76121.79483,76121,2537.366666666667,2538.00976325,76140.29289750001,76140,2538.0,2540.043118,76201.29354,76201,2540.0333333333333,1.245769476518035,2,2,3,1,1.0,2.0,b'SB_21_LongA.png',2541.288887476518,76238.66662429554,76238,2541.266666666667
118,2541.3030439999998,76239.09131999999,76239,2541.3,2541.80291325,76254.0873975,76254,2541.8,2543.8365934999997,76315.097805,76315,2543.8333333333335,1.6916204248555005,2,1,3,1,2.0,2.0,b'SB_51_ShortA.png',2545.528213924855,76365.84641774566,76365,2545.5
119,2545.5450935,76366.352805,76366,2545.5333333333333,2546.0783935,76382.351805,76382,2546.0666666666666,2548.11183875,76443.3551625,76443,2548.1,1.6353768811095506,1,2,3,1,1.0,2.0,b'NB_11_ShortA.png',2549.7472156311096,76492.41646893328,76492,2549.733333333333
120,2549.7629245,76492.887735,76492,2549.733333333333,2550.32962075,76509.88862249999,76509,2550.3,2552.3632682499997,76570.89804749998,76570,2552.3333333333335,1.8190095226746053,3,2,3,1,1.0,2.0,b'HB_2_ShortA.png',2554.1822777726743,76625.46833318022,76625,2554.1666666666665
121,2554.1955599999997,76625.86679999999,76625,2554.1666666666665,2554.77882425,76643.3647275,76643,2554.766666666667,2556.81243375,76704.3730125,76704,2556.8,3.585818581748754,2,2,6,2,2.0,2.0,b'SB_50_ShortA.png',2560.3982523317486,76811.94756995246,76811,2560.366666666667
122,2560.415051,76812.45152999999,76812,2560.4,2560.931683,76827.95048999999,76827,2560.9,2562.9650035,76888.950105,76888,2562.9333333333334,2.7437049930449575,3,2,6,2,2.0,2.0,b'HB_13_LongA.png',2565.708708493045,76971.26125479134,76971,2565.7
123,2565.7184857499997,76971.5545725,76971,2565.7,2566.31846675,76989.5540025,76989,2566.3,2568.35183475,77050.5550425,77050,2568.3333333333335,1.7232290278188884,2,2,7,2,2.0,3.0,b'SB_24_ShortA.png',2570.0750637778187,77102.25191333456,77102,2570.0666666666666
124,2570.07760375,77102.32811249999,77102,2570.0666666666666,2570.6609734999997,77119.82920499999,77119,2570.633333333333,2572.69440125,77180.83203749999,77180,2572.6666666666665,2.142824817681685,3,1,3,1,2.0,2.0,b'HB_46_LongA.png',2574.8372260676815,77245.11678203044,77245,2574.8333333333335
125,2574.8455845,77245.367535,77245,2574.8333333333335,2575.3788799999998,77261.3664,77261,2575.366666666667,2577.41249875,77322.3749625,77322,2577.4,2.763852891046554,3,2,3,1,1.0,2.0,b'HB_28_ShortA.png',2580.1763516410465,77405.2905492314,77405,2580.1666666666665
126,2580.18924575,77405.6773725,77405,2580.1666666666665,2580.7058985,77421.176955,77421,2580.7,2582.7395785,77482.187355,77482,2582.733333333333,1.1162526006810367,2,1,2,1,2.0,3.0,b'SB_40_ShortA.png',2583.855831100681,77515.67493302043,77515,2583.8333333333335
127,2583.86375225,77515.9125675,77515,2583.8333333333335,2584.41374025,77532.4122075,77532,2584.4,2586.4472997499997,77593.4189925,77593,2586.4333333333334,2.832560942042619,1,1,2,1,2.0,3.0,b'NB_15_ShortA.png',2589.2798606920423,77678.39582076127,77678,2589.266666666667
128,2589.2860215,77678.58064500001,77678,2589.266666666667,2589.80269375,77694.0808125,77694,2589.8,2591.8362214999997,77755.08664499999,77755,2591.8333333333335,1.7153819270897657,1,1,7,2,1.0,3.0,b'NB_27_LongA.png',2593.5516034270895,77806.54810281268,77806,2593.5333333333333
129,2593.5561055,77806.683165,77806,2593.5333333333333,2594.1560569999997,77824.68170999999,77824,2594.133333333333,2596.18969575,77885.6908725,77885,2596.1666666666665,1.9538700082339346,3,1,2,1,2.0,3.0,b'HB_45_ShortA.png',2598.1435657582338,77944.30697274701,77944,2598.133333333333
130,2598.16061425,77944.8184275,77944,2598.133333333333,2598.7272475,77961.817425,77961,2598.7,2600.7606425,78022.819275,78022,2600.733333333333,2.3718540815170854,3,2,2,1,1.0,3.0,b'HB_24_LongA.png',2603.132496581517,78093.97489744551,78093,2603.1
131,2603.15012425,78094.50372749999,78094,2603.133333333333,2603.666786,78110.00357999999,78110,2603.6666666666665,2605.700456,78171.01368,78171,2605.7,1.4680612643714994,3,1,2,1,2.0,3.0,b'HB_25_ShortA.png',2607.1685172643715,78215.05551793115,78215,2607.1666666666665
132,2607.180805,78215.42415,78215,2607.1666666666665,2607.7308332499997,78231.9249975,78231,2607.7,2609.7644115,78292.932345,78292,2609.733333333333,2.1912894612178206,2,1,2,1,2.0,3.0,b'SB_15_LongA.png',2611.9557009612176,78358.67102883653,78358,2611.9333333333334
133,2611.97299775,78359.1899325,78359,2611.9666666666667,2612.5562625,78376.68787499999,78376,2612.5333333333333,2614.589842,78437.69526,78437,2614.5666666666666,1.76170824165456,2,1,2,1,2.0,3.0,b'SB_45_LongA.png',2616.3515502416544,78490.54650724963,78490,2616.3333333333335
134,2616.36874025,78491.0622075,78491,2616.366666666667,2616.885346,78506.56038,78506,2616.866666666667,2618.9186852499997,78567.5605575,78567,2618.9,3.414048637030646,2,2,2,1,1.0,3.0,b'SB_54_LongA.png',2622.3327338870304,78669.98201661091,78669,2622.3
135,2622.33799,78670.1397,78670,2622.3333333333335,2622.95470475,78688.6411425,78688,2622.9333333333334,2624.98815075,78749.64452249999,78749,2624.9666666666667,2.3433685989584774,1,1,2,1,2.0,3.0,b'NB_24_LongA.png',2627.3315193489584,78819.94558046875,78819,2627.3
136,2627.3357065,78820.071195,78820,2627.3333333333335,2627.852461,78835.57383,78835,2627.8333333333335,2629.8859355,78896.578065,78896,2629.866666666667,2.113466993905604,3,1,3,1,2.0,2.0,b'HB_39_ShortA.png',2631.9994024939056,78959.98207481716,78959,2631.9666666666667
137,2632.0124284999997,78960.372855,78960,2632.0,2632.5458525,78976.375575,78976,2632.5333333333333,2634.5794465,79037.383395,79037,2634.5666666666666,2.063280535629019,1,1,2,1,2.0,3.0,b'NB_20_LongA.png',2636.642727035629,79099.28181106887,79099,2636.633333333333
138,2636.65768825,79099.7306475,79099,2636.633333333333,2637.20758075,79116.2274225,79116,2637.2,2639.24115175,79177.2345525,79177,2639.233333333333,2.6077737992163748,3,1,3,1,2.0,2.0,b'HB_30_LongA.png',2641.8489255492163,79255.46776647649,79255,2641.8333333333335
139,2641.85758025,79255.7274075,79255,2641.8333333333335,2642.37427,79271.2281,79271,2642.366666666667,2644.40783175,79332.23495249999,79332,2644.4,1.8690158149693161,1,1,2,1,2.0,3.0,b'NB_19_ShortA.png',2646.276847564969,79388.30542694907,79388,2646.266666666667
140,2646.2837262499997,79388.5117875,79388,2646.266666666667,2646.8837205,79406.511615,79406,2646.866666666667,2648.91720575,79467.5161725,79467,2648.9,2.751359143294394,1,2,2,1,1.0,3.0,b'NB_13_LongA.png',2651.6685648932944,79550.05694679884,79550,2651.6666666666665
141,2651.672458,79550.17374,79550,2651.6666666666665,2652.2725025,79568.175075,79568,2652.266666666667,2654.3060975,79629.182925,79629,2654.3,2.383587242802605,1,2,7,2,2.0,3.0,b'NB_5_ShortA.png',2656.6896847428025,79700.69054228408,79700,2656.6666666666665
142,2656.70532,79701.1596,79701,2656.7,2657.2553135,79717.659405,79717,2657.233333333333,2659.28871,79778.66129999999,79778,2659.266666666667,2.574682852718979,2,2,6,2,2.0,2.0,b'SB_23_LongA.png',2661.863392852719,79855.90178558156,79855,2661.8333333333335
143,2661.87374925,79856.2124775,79856,2661.866666666667,2662.4238065,79872.714195,79872,2662.4,2664.4572024999998,79933.71607499999,79933,2664.4333333333334,2.4917191204149276,2,1,2,1,2.0,3.0,b'SB_30_LongA.png',2666.9489216204147,80008.46764861244,80008,2666.9333333333334
144,2666.9642135,80008.92640499999,80008,2666.9333333333334,2667.514163,80025.42489,80025,2667.5,2669.547489,80086.42467000001,80086,2669.5333333333333,1.544502078788355,2,1,7,2,1.0,3.0,b'SB_17_shortA.png',2671.0919910787884,80132.75973236366,80132,2671.0666666666666
145,2671.1063932499997,80133.1917975,80133,2671.1,2671.62312025,80148.6936075,80148,2671.6,2673.65672225,80209.70166749999,80209,2673.633333333333,1.9871056296397,1,2,2,1,1.0,3.0,b'NB_2_LongA.png',2675.6438278796395,80269.31483638918,80269,2675.633333333333
146,2675.655631,80269.66893,80269,2675.633333333333,2676.1889954999997,80285.66986499999,80285,2676.1666666666665,2678.2727622499997,80348.18286749999,80348,2678.266666666667,2.4259348092600703,3,2,6,2,2.0,2.0,b'HB_43_ShortA.png',2680.6986970592598,80420.96091177779,80420,2680.6666666666665
147,2680.70737775,80421.2213325,80421,2680.7,2681.273989,80438.21966999999,80438,2681.266666666667,2683.307402,80499.22206,80499,2683.3,2.908554575406015,2,1,3,1,2.0,2.0,b'SB_11_LongA.png',2686.215956575406,80586.47869726218,80586,2686.2
148,2686.23169275,80586.9507825,80586,2686.2,2686.79845075,80603.9535225,80603,2686.766666666667,2688.831851,80664.95552999999,80664,2688.8,2.583580699050799,1,1,6,2,1.0,2.0,b'NB_16_ShortA.png',2691.4154316990507,80742.46295097152,80742,2691.4
149,2691.426036,80742.78108,80742,2691.4,2691.97599425,80759.2798275,80759,2691.9666666666667,2694.00958,80820.2874,80820,2694.0,2.739904797868803,3,1,4,1,2.0,1.0,b'HB_38_LongA.png',2696.7494847978687,80902.48454393607,80902,2696.733333333333
150,2696.75846275,80902.7538825,80902,2696.733333333333,2697.30851425,80919.2554275,80919,2697.3,2699.3420805,80980.262415,80980,2699.3333333333335,1.4256863465998322,2,2,6,2,2.0,2.0,b'SB_32_LongA.png',2700.7677668466,81023.033005398,81023,2700.766666666667
151,2700.769739,81023.09216999999,81023,2700.766666666667,2701.2863737499997,81038.59121249999,81038,2701.266666666667,2703.31984625,81099.5953875,81099,2703.3,2.4611389823257923,1,2,3,1,1.0,2.0,b'NB_18_LongA.png',2705.7809852323257,81173.42955696977,81173,2705.766666666667
152,2705.7945875,81173.837625,81173,2705.766666666667,2706.37797,81191.3391,81191,2706.366666666667,2708.41149175,81252.34475250001,81252,2708.4,2.5021572750993073,3,1,5,2,1.0,1.0,b'HB_1_ShortA.png',2710.9136490250994,81327.40947075299,81327,2710.9
153,2710.9182662499998,81327.54798749999,81327,2710.9,2711.4683112499997,81344.0493375,81344,2711.4666666666667,2713.5018729999997,81405.05618999999,81405,2713.5,3.1035301208030432,2,1,3,1,2.0,2.0,b'SB_60_ShortA.png',2716.6054031208027,81498.16209362408,81498,2716.6
154,2716.6132485,81498.397455,81498,2716.6,2717.16315975,81514.8947925,81514,2717.133333333333,2719.19683325,81575.90499750001,81575,2719.1666666666665,2.5205785506404936,1,1,6,2,1.0,2.0,b'NB_14_LongA.png',2721.7174118006405,81651.52235401922,81651,2721.7
155,2721.7301405,81651.90421499999,81651,2721.7,2722.33005775,81669.9017325,81669,2722.3,2724.36363925,81730.9091775,81730,2724.3333333333335,0.25240067252889276,2,2,6,2,2.0,2.0,b'SB_2_LongA.png',2724.6160399225287,81738.48119767586,81738,2724.6
156,2724.6298967499997,81738.8969025,81738,2724.6,2725.19653325,81755.8959975,81755,2725.1666666666665,2727.22998525,81816.8995575,81816,2727.2,2.0826317241881043,1,1,6,2,1.0,2.0,b'NB_8_LongA.png',2729.312616974188,81879.37850922564,81879,2729.3
157,2729.3161975,81879.485925,81879,2729.3,2729.8829495,81896.488485,81896,2729.866666666667,2731.916508,81957.49523999999,81957,2731.9,0.9766683094203472,1,1,3,1,2.0,2.0,b'NB_14_ShortA.png',2732.89317630942,81986.7952892826,81986,2732.866666666667
158,2732.90365375,81987.1096125,81987,2732.9,2733.5202959999997,82005.60887999999,82005,2733.5,2735.5538927499997,82066.61678249999,82066,2735.5333333333333,2.2892148001119494,1,1,6,2,1.0,2.0,b'NB_3_LongA.png',2737.8431075501117,82135.29322650335,82135,2737.8333333333335
159,2737.85664275,82135.6992825,82135,2737.8333333333335,2738.38993525,82151.69805749999,82151,2738.366666666667,2740.42337525,82212.7012575,82212,2740.4,2.7790673868730664,1,2,3,1,1.0,2.0,b'NB_1_LongA.png',2743.202442636873,82296.07327910619,82296,2743.2
160,2743.21895,82296.5685,82296,2743.2,2743.7854669999997,82313.56400999999,82313,2743.766666666667,2745.81908275,82374.57248249999,82374,2745.8,1.8142765280790627,1,1,2,1,2.0,3.0,b'NB_28_LongA.png',2747.633359278079,82429.00077834236,82429,2747.633333333333
161,2747.636462,82429.09386,82429,2747.633333333333,2748.169798,82445.09393999999,82445,2748.1666666666665,2750.203196,82506.09588,82506,2750.2,3.319963359972462,2,2,3,1,1.0,2.0,b'SB_3_LongA.png',2753.5231593599724,82605.69478079917,82605,2753.5
162,2753.5280467499997,82605.8414025,82605,2753.5,2754.044716,82621.34148,82621,2754.0333333333333,2756.0783684999997,82682.35105499999,82682,2756.0666666666666,1.4978069241624326,2,2,6,2,2.0,2.0,b'SB_19_LongA.png',2757.576175424162,82727.28526272486,82727,2757.5666666666666
163,2757.58503375,82727.5510125,82727,2757.5666666666666,2758.1349714999997,82744.049145,82744,2758.133333333333,2760.16836625,82805.0509875,82805,2760.1666666666665,1.7071123451460153,1,1,3,1,2.0,2.0,b'NB_17_LongA.png',2761.875478595146,82856.26435785438,82856,2761.866666666667
164,2761.88266475,82856.4799425,82856,2761.866666666667,2762.44929425,82873.4788275,82873,2762.4333333333334,2764.4827415,82934.48224499999,82934,2764.4666666666667,2.0230637423228472,1,1,2,1,2.0,3.0,b'NB_9_LongA.png',2766.505805242323,82995.17415726968,82995,2766.5
165,2766.51470975,82995.44129249999,82995,2766.5,2767.047998,83011.43994,83011,2767.0333333333333,2769.081419,83072.44257,83072,2769.0666666666666,1.898232922423631,3,2,3,1,1.0,2.0,b'HB_49_ShortA.png',2770.9796519224237,83129.38955767271,83129,2770.9666666666667
166,2770.991959,83129.75877,83129,2770.9666666666667,2771.5253315,83145.759945,83145,2771.5,2773.5589354999997,83206.768065,83206,2773.5333333333333,1.9294774194713682,2,1,3,1,2.0,2.0,b'SB_4_ShortA.png',2775.488412919471,83264.65238758414,83264,2775.4666666666667
167,2775.4955959999998,83264.86787999999,83264,2775.4666666666667,2776.0621189999997,83281.86356999999,83281,2776.0333333333333,2778.09584,83342.8752,83342,2778.0666666666666,1.9634471228346229,2,2,2,1,1.0,3.0,b'SB_43_ShortA.png',2780.0592871228346,83401.77861368503,83401,2780.0333333333333
168,2780.0756214999997,83402.26864499999,83402,2780.0666666666666,2780.6922425,83420.76727499999,83420,2780.6666666666665,2782.72581275,83481.77438249999,83481,2782.7,2.392818145919591,1,1,2,1,2.0,3.0,b'NB_6_LongA.png',2785.1186308959195,83553.55892687758,83553,2785.1
169,2785.1331925,83553.995775,83553,2785.1,2785.74987175,83572.4961525,83572,2785.733333333333,2787.783203,83633.49609,83633,2787.766666666667,2.4848885308019817,3,2,4,1,1.0,1.0,b'HB_55_LongA.png',2790.268091530802,83708.04274592406,83708,2790.266666666667
170,2790.28349175,83708.5047525,83708,2790.266666666667,2790.86676975,83726.0030925,83726,2790.866666666667,2792.900259,83787.00777,83787,2792.9,2.319224516162649,3,1,4,1,2.0,1.0,b'HB_41_ShortA.png',2795.2194835161627,83856.58450548488,83856,2795.2
171,2795.281453,83858.44359,83858,2795.266666666667,2795.8480944999997,83875.442835,83875,2795.8333333333335,2797.88164225,83936.4492675,83936,2797.866666666667,2.282530753640458,1,2,3,1,1.0,2.0,b'NB_10_LongA.png',2800.1641730036404,84004.9251901092,84004,2800.133333333333
172,2800.1732522499997,84005.19756749998,84005,2800.1666666666665,2800.7399164999997,84022.19749499999,84022,2800.733333333333,2802.77350325,84083.2050975,84083,2802.766666666667,2.965593913104385,3,1,4,1,2.0,1.0,b'HB_47_ShortA.png',2805.7390971631044,84172.17291489313,84172,2805.733333333333
173,2805.7538112499997,84172.6143375,84172,2805.733333333333,2806.321106,84189.63317999999,84189,2806.3,2808.35398575,84250.6195725,84250,2808.3333333333335,1.8323143888264894,1,1,2,1,2.0,3.0,b'NB_12_LongA.png',2810.1863001388265,84305.5890041648,84305,2810.1666666666665
174,2810.2042657499996,84306.12797249999,84306,2810.2,2810.73765925,84322.1297775,84322,2810.733333333333,2812.7712402499997,84383.1372075,84383,2812.766666666667,2.519822586327791,3,1,4,1,2.0,1.0,b'HB_56_LongA.png',2815.2910628363275,84458.73188508983,84458,2815.266666666667
175,2815.29826675,84458.9480025,84458,2815.266666666667,2815.8981005,84476.943015,84476,2815.866666666667,2817.931837,84537.95511000001,84537,2817.9,2.9865270014852285,1,1,6,2,1.0,2.0,b'NB_11_LongA.png',2820.9183640014853,84627.55092004457,84627,2820.9
176,2820.92878575,84627.86357249999,84627,2820.9,2821.49550025,84644.8650075,84644,2821.4666666666667,2823.5289279999997,84705.86783999999,84705,2823.5,2.3423251379281282,2,2,2,1,1.0,3.0,b'SB_55_ShortA.png',2825.871253137928,84776.13759413784,84776,2825.866666666667
177,2825.8876472499996,84776.6294175,84776,2825.866666666667,2826.43761225,84793.1283675,84793,2826.4333333333334,2828.4709804999998,84854.12941499999,84854,2828.4666666666667,2.6796649787575006,3,2,4,1,1.0,1.0,b'HB_35_LongA.png',2831.1506454787573,84934.51936436271,84934,2831.133333333333
178,2831.16396275,84934.9188825,84934,2831.133333333333,2831.76393525,84952.9180575,84952,2831.733333333333,2833.79755325,85013.9265975,85013,2833.766666666667,1.2933251175563782,1,2,2,1,1.0,3.0,b'NB_4_LongA.png',2835.0908783675563,85052.7263510267,85052,2835.0666666666666
179,2835.1024494999997,85053.07348499999,85053,2835.1,2835.657819,85069.73457,85069,2835.633333333333,2837.69484975,85130.8454925,85130,2837.6666666666665,2.325454005971551,2,2,2,1,1.0,3.0,b'SB_30_LongA.png',2840.0203037559713,85200.60911267914,85200,2840.0
180,2840.031657,85200.94971,85200,2840.0,2840.61105075,85218.3315225,85218,2840.6,2842.694349,85280.83047,85280,2842.6666666666665,3.4280604992527515,2,1,7,2,1.0,3.0,b'SB_30_ShortA.png',2846.1224094992526,85383.67228497758,85383,2846.1
