trial_num,fixcross_time,fixation_HZ,fixation_bin,fixation_regarded,start_time,Fstart_HZ,Fstart_bin,Fstart_regarded,stop_time,Fstop_HZ,Fstop_bin,Fstop_regarded,RT,boundary_type,key,resp_value,leftright,accuracy,confidence,frameName,response_time,response_HZ,response_bin,response_regarded
1,2238.6379655,67159.138965,67159,2238.633333333333,2239.2199257499997,67176.59777249998,67176,2239.2,2241.274202,67238.22606,67238,2241.266666666667,1.6121745099080727,3,1,6,2,1.0,2.0,b'HB_30_ShortA.png',2242.886376509908,67286.59129529724,67286,2242.866666666667
2,2242.9241945,67287.72583499999,67287,2242.9,2243.5865209999997,67307.59563,67307,2243.5666666666666,2245.61821,67368.5463,67368,2245.6,1.406766980770044,1,2,7,2,2.0,3.0,b'NB_1_ShortA.png',2247.02497698077,67410.7493094231,67410,2247.0
3,2247.0663335,67411.990005,67411,2247.0333333333333,2247.6283252499998,67428.8497575,67428,2247.6,2249.66006375,67489.8019125,67489,2249.633333333333,1.2428017327329144,1,2,7,2,2.0,3.0,b'NB_25_ShortA.png',2250.902865482733,67527.08596448199,67527,2250.9
4,2250.9105007499998,67527.3150225,67527,2250.9,2251.51268275,67545.3804825,67545,2251.5,2253.544396,67606.33188,67606,2253.5333333333333,1.4056648897239938,1,1,2,1,2.0,3.0,b'NB_11_LongA.png',2254.9500608897238,67648.50182669172,67648,2254.9333333333334
5,2254.96253875,67648.8761625,67648,2254.9333333333334,2255.584638,67667.53914,67667,2255.5666666666666,2257.63954875,67729.1864625,67729,2257.633333333333,1.4555022320710123,1,2,7,2,2.0,3.0,b'NB_29_LongA.png',2259.095050982071,67772.85152946213,67772,2259.0666666666666
6,2259.1229835,67773.689505,67773,2259.1,2259.6846545,67790.539635,67790,2259.6666666666665,2261.716235,67851.48705,67851,2261.7,2.0820285147055984,3,2,3,1,1.0,2.0,b'HB_40_ShortA.png',2263.7982635147055,67913.94790544116,67913,2263.766666666667
7,2263.823523,67914.70569,67914,2263.8,2264.3854595,67931.56378499999,67931,2264.366666666667,2266.416727,67992.50180999999,67992,2266.4,1.7664651687955484,1,2,7,2,2.0,3.0,b'NB_28_ShortA.png',2268.1831921687954,68045.49576506385,68045,2268.1666666666665
8,2268.20409975,68046.1229925,68046,2268.2,2268.806106,68064.18317999999,68064,2268.8,2270.8374424999997,68125.12327499999,68125,2270.8333333333335,1.2657138638896868,2,1,2,1,2.0,3.0,b'SB_10_ShortA.png',2272.1031563638894,68163.09469091668,68163,2272.1
9,2272.11546075,68163.4638225,68163,2272.1,2272.69724275,68180.9172825,68180,2272.6666666666665,2274.72879925,68241.8639775,68241,2274.7,1.543761451728642,2,1,2,1,2.0,3.0,b'SB_52_ShortA.png',2276.2725607017287,68288.17682105186,68288,2276.266666666667
10,2276.2895424999997,68288.68627499999,68288,2276.266666666667,2276.891552,68306.74656,68306,2276.866666666667,2278.92274625,68367.6823875,68367,2278.9,1.9037465499714017,2,2,7,2,2.0,3.0,b'SB_50_ShortA.png',2280.826492799971,68424.79478399914,68424,2280.8
11,2280.83830275,68425.1490825,68425,2280.8333333333335,2281.48047825,68444.4143475,68444,2281.4666666666667,2283.51179875,68505.3539625,68505,2283.5,1.3094675582833588,1,1,2,1,2.0,3.0,b'NB_24_LongA.png',2284.821266308283,68544.6379892485,68544,2284.8
12,2284.84421375,68545.3264125,68545,2284.8333333333335,2285.44619525,68563.3858575,68563,2285.4333333333334,2287.47740625,68624.3221875,68624,2287.4666666666667,1.757341254153289,2,1,2,1,2.0,3.0,b'SB_38_LongA.png',2289.2347475041533,68677.0424251246,68677,2289.233333333333
13,2289.24828,68677.4484,68677,2289.233333333333,2289.810138,68694.30414,68694,2289.8,2291.841468,68755.24404,68755,2291.8333333333335,2.1451354400487617,3,1,6,2,1.0,2.0,b'HB_52_ShortA.png',2293.986603440049,68819.59810320147,68819,2293.9666666666667
14,2293.995485,68819.86455,68819,2293.9666666666667,2294.57744,68837.3232,68837,2294.5666666666666,2296.6081835,68898.245505,68898,2296.6,1.2151527061359957,2,2,7,2,2.0,3.0,b'SB_14_ShortA.png',2297.823336206136,68934.70008618408,68934,2297.8
15,2297.83152775,68934.9458325,68934,2297.8,2298.49352825,68954.8058475,68954,2298.4666666666667,2300.52466775,69015.7400325,69015,2300.5,2.078934150049463,2,2,7,2,2.0,3.0,b'SB_45_ShortA.png',2302.6036019000494,69078.10805700149,69078,2302.6
16,2302.6225215,69078.675645,69078,2302.6,2303.2446717499997,69097.3401525,69097,2303.233333333333,2305.2762905,69158.288715,69158,2305.266666666667,1.4780131047591567,3,2,3,1,1.0,2.0,b'HB_4_LongA.png',2306.754303604759,69202.62910814278,69202,2306.733333333333
17,2306.76402675,69202.9208025,69202,2306.733333333333,2307.40611775,69222.1835325,69222,2307.4,2309.43747325,69283.1241975,69283,2309.4333333333334,1.733485296019353,1,2,7,2,2.0,3.0,b'NB_13_ShortA.png',2311.1709585460194,69335.12875638058,69335,2311.1666666666665
18,2311.19022675,69335.7068025,69335,2311.1666666666665,2311.7521174999997,69352.56352499999,69352,2311.733333333333,2313.78348075,69413.5044225,69413,2313.766666666667,1.3476423069369048,1,2,7,2,2.0,3.0,b'NB_26_ShortA.png',2315.1311230569368,69453.93369170811,69453,2315.1
19,2315.15017575,69454.5052725,69454,2315.133333333333,2315.75222175,69472.5666525,69472,2315.733333333333,2317.78353025,69533.50590749999,69533,2317.766666666667,1.9846350844018161,2,1,2,1,2.0,3.0,b'SB_28_LongA.png',2319.7681653344016,69593.04496003204,69593,2319.766666666667
20,2319.7731615,69593.19484499999,69593,2319.766666666667,2320.33521725,69610.0565175,69610,2320.3333333333335,2322.36652875,69670.9958625,69670,2322.3333333333335,2.0495584467425942,2,2,7,2,2.0,3.0,b'SB_25_LongA.png',2324.4160871967424,69732.48261590228,69732,2324.4
21,2324.4297005,69732.891015,69732,2324.4,2325.031745,69750.95234999999,69750,2325.0,2327.062982,69811.88945999999,69811,2327.0333333333333,1.5254420574055985,3,1,6,2,1.0,2.0,b'HB_2_LongA.png',2328.5884240574055,69857.65272172216,69857,2328.5666666666666
22,2328.5951797499997,69857.85539249999,69857,2328.5666666666666,2329.25746425,69877.7239275,69877,2329.233333333333,2331.2887935,69938.66380499999,69938,2331.266666666667,1.7225502191577107,2,2,7,2,2.0,3.0,b'SB_1_LongA.png',2333.0113437191576,69990.34031157472,69990,2333.0
23,2333.0334414999998,69991.003245,69991,2333.0333333333333,2333.6555215,70009.665645,70009,2333.633333333333,2335.686832,70070.60496,70070,2335.6666666666665,1.9719309335341677,2,1,2,1,2.0,3.0,b'SB_41_ShortA.png',2337.658762933534,70129.76288800602,70129,2337.633333333333
24,2337.6742995,70130.228985,70130,2337.6666666666665,2338.2361312499997,70147.08393749999,70147,2338.233333333333,2340.2673517499998,70208.02055249999,70208,2340.266666666667,1.8408894872991368,1,2,7,2,2.0,3.0,b'NB_9_LongA.png',2342.108241237299,70263.24723711897,70263,2342.1
25,2342.13188525,70263.9565575,70263,2342.1,2342.77403775,70283.2211325,70283,2342.766666666667,2344.805359,70344.16077,70344,2344.8,1.598572154995054,1,1,2,1,2.0,3.0,b'NB_23_ShortA.png',2346.403931154995,70392.11793464985,70392,2346.4
26,2346.42066675,70392.6200025,70392,2346.4,2347.002618,70410.07854,70410,2347.0,2349.03399025,70471.0197075,70471,2349.0333333333333,1.842249566456303,3,1,5,2,1.0,1.0,b'HB_51_ShortA.png',2350.8762398164563,70526.28719449369,70526,2350.866666666667
27,2350.8839897499997,70526.51969249999,70526,2350.866666666667,2351.4858335,70544.57500499999,70544,2351.4666666666667,2353.5171514999997,70605.514545,70605,2353.5,2.017889261362143,3,2,3,1,1.0,2.0,b'HB_45_LongA.png',2355.535040761362,70666.05122284086,70666,2355.5333333333333
28,2355.54882,70666.4646,70666,2355.5333333333333,2356.17107125,70685.1321375,70685,2356.1666666666665,2358.2023907499997,70746.0717225,70746,2358.2,1.5408827780047432,1,1,2,1,2.0,3.0,b'NB_27_LongA.png',2359.7432735280045,70792.29820584014,70792,2359.733333333333
29,2359.7549879999997,70792.64963999999,70792,2359.733333333333,2360.3168135,70809.504405,70809,2360.3,2362.34817775,70870.4453325,70870,2362.3333333333335,2.500449897488579,3,2,3,1,1.0,2.0,b'HB_12_ShortA.png',2364.8486276474887,70945.45882942466,70945,2364.8333333333335
30,2364.86617075,70945.9851225,70945,2364.8333333333335,2365.42801675,70962.84050250001,70962,2365.4,2367.45943575,71023.7830725,71023,2367.4333333333334,1.7973344012862071,2,2,7,2,2.0,3.0,b'SB_16_ShortA.png',2369.256770151286,71077.70310453858,71077,2369.233333333333
31,2369.28022075,71078.4066225,71078,2369.266666666667,2369.86220625,71095.8661875,71095,2369.8333333333335,2371.89358825,71156.8076475,71156,2371.866666666667,1.2765125533333048,1,1,2,1,2.0,3.0,b'NB_21_LongA.png',2373.1701008033333,71195.1030241,71195,2373.1666666666665
32,2373.1817745,71195.453235,71195,2373.1666666666665,2373.78378325,71213.5134975,71213,2373.766666666667,2375.8151015,71274.453045,71274,2375.8,1.8293636739253998,3,2,4,1,1.0,1.0,b'HB_46_ShortA.png',2377.6444651739253,71329.33395521776,71329,2377.633333333333
33,2377.653485,71329.60454999999,71329,2377.633333333333,2378.2958882499997,71348.87664749999,71348,2378.266666666667,2380.3270345,71409.811035,71409,2380.3,1.8117659108247608,2,1,2,1,2.0,3.0,b'SB_48_LongA.png',2382.138800410825,71464.16401232475,71464,2382.133333333333
34,2382.150988,71464.52964,71464,2382.133333333333,2382.7730577499997,71483.1917325,71483,2382.766666666667,2384.8043574999997,71544.130725,71544,2384.8,1.2917714597424492,1,1,7,2,1.0,3.0,b'NB_20_LongA.png',2386.096128959742,71582.88386879227,71582,2386.0666666666666
35,2386.10604975,71583.18149249999,71583,2386.1,2386.70810275,71601.24308249999,71601,2386.7,2388.7393952499997,71662.18185749999,71662,2388.733333333333,1.9708474593935534,3,1,6,2,1.0,2.0,b'HB_31_LongA.png',2390.7102427093932,71721.3072812818,71721,2390.7
36,2390.726729,71721.80187,71721,2390.7,2391.2685225,71738.055675,71738,2391.266666666667,2393.299763,71798.99289,71798,2393.266666666667,1.5218282566638663,1,1,7,2,1.0,3.0,b'NB_26_LongA.png',2394.821591256664,71844.64773769991,71844,2394.8
37,2394.83451125,71845.0353375,71845,2394.8333333333335,2395.416304,71862.48912,71862,2395.4,2397.44778625,71923.4335875,71923,2397.4333333333334,1.5998661214252934,3,1,5,2,1.0,1.0,b'HB_43_LongA.png',2399.047652371425,71971.42957114275,71971,2399.0333333333333
38,2399.05769325,71971.7307975,71971,2399.0333333333333,2399.6597105,71989.79131500001,71989,2399.633333333333,2401.69099925,72050.7299775,72050,2401.6666666666665,1.5781508709769696,2,2,7,2,2.0,3.0,b'SB_43_ShortA.png',2403.269150120977,72098.07450362931,72098,2403.266666666667
39,2403.2754689999997,72098.26406999999,72098,2403.266666666667,2403.837357,72115.12071,72115,2403.8333333333335,2405.86860675,72176.05820249999,72176,2405.866666666667,1.4307632714044303,3,1,6,2,1.0,2.0,b'HB_57_LongA.png',2407.2993700214042,72218.98110064212,72218,2407.266666666667
40,2407.3061285,72219.183855,72219,2407.3,2407.86816675,72236.0450025,72236,2407.866666666667,2409.8993177499997,72296.97953249999,72296,2409.866666666667,1.4616370521252975,2,1,2,1,2.0,3.0,b'SB_47_LongA.png',2411.360954802125,72340.82864406375,72340,2411.3333333333335
41,2411.3761365,72341.284095,72341,2411.366666666667,2411.9580929999997,72358.74278999999,72358,2411.9333333333334,2413.9893775,72419.681325,72419,2413.9666666666667,1.7677818066440523,3,1,5,2,1.0,1.0,b'HB_11_LongA.png',2415.757159306644,72472.71477919932,72472,2415.733333333333
42,2415.78117575,72473.43527249999,72473,2415.766666666667,2416.34309475,72490.2928425,72490,2416.3333333333335,2418.3741057499997,72551.22317249999,72551,2418.366666666667,1.8074776162393391,3,2,3,1,1.0,2.0,b'HB_50_LongA.png',2420.181583366239,72605.44750098717,72605,2420.1666666666665
43,2420.195562,72605.86686,72605,2420.1666666666665,2420.8777135,72626.331405,72626,2420.866666666667,2422.9091587499997,72687.27476249999,72687,2422.9,1.082034872379154,2,2,7,2,2.0,3.0,b'SB_53_ShortA.png',2423.991193622379,72719.73580867136,72719,2423.9666666666667
44,2424.00323325,72720.0969975,72720,2424.0,2424.6855284999997,72740.565855,72740,2424.6666666666665,2426.717038,72801.51113999999,72801,2426.7,1.4860885554226115,3,2,4,1,1.0,1.0,b'HB_53_ShortA.png',2428.2031265554224,72846.09379666267,72846,2428.2
45,2428.22726075,72846.8178225,72846,2428.2,2428.7893295,72863.67988499999,72863,2428.766666666667,2430.82066875,72924.6200625,72924,2430.8,1.8944263443117961,1,1,3,1,2.0,2.0,b'NB_5_LongA.png',2432.715095094312,72981.45285282936,72981,2432.7
46,2432.7393202499998,72982.17960749999,72982,2432.733333333333,2433.3012142499997,72999.03642749999,72999,2433.3,2435.3325154999998,73059.975465,73059,2435.3,1.5553933448391035,2,1,2,1,2.0,3.0,b'SB_58_ShortA.png',2436.887908844839,73106.63726534517,73106,2436.866666666667
47,2436.908775,73107.26324999999,73107,2436.9,2437.69146475,73130.74394249999,73130,2437.6666666666665,2439.7225747499997,73191.6772425,73191,2439.7,1.3551368643529713,2,1,3,1,2.0,2.0,b'SB_54_LongA.png',2441.0777116143527,73232.33134843058,73232,2441.0666666666666
48,2441.08457975,73232.5373925,73232,2441.0666666666666,2441.66653275,73249.9959825,73249,2441.633333333333,2443.6976744999997,73310.93023499999,73310,2443.6666666666665,1.5915701143676415,1,2,3,1,1.0,2.0,b'NB_8_ShortA.png',2445.2892446143674,73358.67733843102,73358,2445.266666666667
49,2445.3038615,73359.11584500001,73359,2445.3,2445.966113,73378.98339,73378,2445.9333333333334,2447.9972534999997,73439.917605,73439,2447.9666666666667,1.3243360874475911,1,1,3,1,2.0,2.0,b'NB_19_ShortA.png',2449.3215895874473,73479.64768762342,73479,2449.3
50,2449.3343145,73480.029435,73480,2449.3333333333335,2450.01660175,73500.4980525,73500,2450.0,2452.0477297499997,73561.4318925,73561,2452.0333333333333,2.080721465521492,3,1,6,2,1.0,2.0,b'HB_25_LongA.png',2454.128451215521,73623.85353646564,73623,2454.1
51,2454.1422285,73624.266855,73624,2454.133333333333,2454.76434575,73642.93037249999,73642,2454.733333333333,2456.79547675,73703.8643025,73703,2456.766666666667,2.15485223417636,3,2,6,2,2.0,2.0,b'HB_59_LongA.png',2458.9503289841764,73768.5098695253,73768,2458.9333333333334
52,2458.9686107499997,73769.05832249999,73769,2458.9666666666667,2459.65084025,73789.5252075,73789,2459.633333333333,2461.6820482499998,73850.4614475,73850,2461.6666666666665,1.3239286366151646,2,1,2,1,2.0,3.0,b'SB_35_LongA.png',2463.005976886615,73890.17930659845,73890,2463.0
53,2463.02041625,73890.6124875,73890,2463.0,2463.682652,73910.47955999999,73910,2463.6666666666665,2465.7138017499997,73971.4140525,73971,2465.7,1.4652494873153046,2,1,3,1,2.0,2.0,b'SB_60_ShortA.png',2467.179051237315,74015.37153711946,74015,2467.1666666666665
54,2467.19058775,74015.71763249999,74015,2467.1666666666665,2467.83283675,74034.9851025,74034,2467.8,2469.86428675,74095.92860249999,74095,2469.8333333333335,1.7596040919888765,2,2,6,2,2.0,2.0,b'SB_4_LongA.png',2471.6238908419887,74148.71672525966,74148,2471.6
55,2471.63257825,74148.9773475,74148,2471.6,2472.314888,74169.44664,74169,2472.3,2474.3460367499997,74230.38110249999,74230,2474.3333333333335,1.7995076493825763,1,1,3,1,2.0,2.0,b'NB_4_LongA.png',2476.1455443993823,74284.36633198147,74284,2476.133333333333
56,2476.17098525,74285.1295575,74285,2476.1666666666665,2476.83299825,74304.9899475,74304,2476.8,2478.8641924999997,74365.925775,74365,2478.8333333333335,1.849080933490768,3,1,6,2,1.0,2.0,b'HB_14_ShortA.png',2480.7132734334905,74421.39820300472,74421,2480.7
57,2480.72961475,74421.8884425,74421,2480.7,2481.39202625,74441.7607875,74441,2481.366666666667,2483.4232435,74502.697305,74502,2483.4,1.5508972527459264,1,2,3,1,1.0,2.0,b'NB_5_ShortA.png',2484.974140752746,74549.22422258237,74549,2484.9666666666667
58,2484.9846945,74549.54083499999,74549,2484.9666666666667,2485.6068075,74568.204225,74568,2485.6,2487.63766825,74629.1300475,74629,2487.633333333333,1.08016650530044,2,2,7,2,2.0,3.0,b'SB_13_ShortA.png',2488.7178347553004,74661.53504265902,74661,2488.7
59,2488.7331692499997,74661.99507749999,74661,2488.7,2489.37369825,74681.2109475,74681,2489.366666666667,2491.405107,74742.15321,74742,2491.4,2.1426551596960053,3,2,6,2,2.0,2.0,b'HB_6_ShortA.png',2493.547762159696,74806.43286479088,74806,2493.5333333333333
60,2493.56787075,74807.03612250001,74807,2493.5666666666666,2494.12976725,74823.8930175,74823,2494.1,2496.16106525,74884.83195749999,74884,2496.133333333333,1.5681023752549663,3,2,4,1,1.0,1.0,b'HB_8_ShortA.png',2497.729167625255,74931.87502875764,74931,2497.7
61,2497.75400675,74932.6202025,74932,2497.733333333333,2498.31581625,74949.4744875,74949,2498.3,2500.347093,75010.41279,75010,2500.3333333333335,1.6710338513366878,2,1,3,1,2.0,2.0,b'SB_17_LongA.png',2502.0181268513365,75060.5438055401,75060,2502.0
62,2502.03210975,75060.9632925,75060,2502.0,2502.6342775,75079.02832499999,75079,2502.633333333333,2504.66539625,75139.9618875,75139,2504.633333333333,1.79403100698255,1,1,3,1,2.0,2.0,b'NB_25_LongA.png',2506.4594272569825,75193.78281770948,75193,2506.4333333333334
63,2506.47840775,75194.3522325,75194,2506.4666666666667,2507.12057625,75213.61728749999,75213,2507.1,2509.152051,75274.56153,75274,2509.133333333333,1.324267967720516,3,1,4,1,2.0,1.0,b'HB_39_LongA.png',2510.4763189677205,75314.28956903162,75314,2510.4666666666667
64,2510.4877954999997,75314.633865,75314,2510.4666666666667,2511.1097165,75333.291495,75333,2511.1,2513.140617,75394.21851,75394,2513.133333333333,1.4799573126947507,2,1,3,1,2.0,2.0,b'SB_36_ShortA.png',2514.6205743126948,75438.61722938085,75438,2514.6
65,2514.62553625,75438.7660875,75438,2514.6,2515.26778625,75458.0335875,75458,2515.266666666667,2517.299189,75518.97567,75518,2517.266666666667,0.9430388166802004,2,2,7,2,2.0,3.0,b'SB_19_LongA.png',2518.24222781668,75547.2668345004,75547,2518.233333333333
66,2518.2553325,75547.659975,75547,2518.233333333333,2518.8774142499997,75566.3224275,75566,2518.866666666667,2520.90869575,75627.2608725,75627,2520.9,1.4383108522742987,1,1,3,1,2.0,2.0,b'NB_18_LongA.png',2522.347006602274,75670.41019806823,75670,2522.3333333333335
67,2522.3697015,75671.091045,75671,2522.366666666667,2522.911365,75687.34095,75687,2522.9,2524.9427005,75748.28101499999,75748,2524.9333333333334,0.6708901831880212,2,1,2,1,2.0,3.0,b'SB_29_LongA.png',2525.613590683188,75768.40772049563,75768,2525.6
68,2525.6290492499998,75768.8714775,75768,2525.6,2526.190898,75785.72694,75785,2526.1666666666665,2528.2221262499997,75846.66378749999,75846,2528.2,1.3404850064544007,3,1,4,1,2.0,1.0,b'HB_33_LongA.png',2529.562611256454,75886.87833769362,75886,2529.5333333333333
69,2529.575489,75887.26466999999,75887,2529.5666666666666,2530.1973515,75905.920545,75905,2530.1666666666665,2532.228806,75966.86418,75966,2532.2,1.9425174979260191,2,1,2,1,2.0,3.0,b'SB_37_ShortA.png',2534.171323497926,76025.13970493778,76025,2534.1666666666665
70,2534.1883015,76025.649045,76025,2534.1666666666665,2534.79032675,76043.7098025,76043,2534.766666666667,2536.8216562499997,76104.64968749999,76104,2536.8,1.4348117711488158,2,2,3,1,1.0,2.0,b'SB_34_LongA.png',2538.2564680211485,76147.69404063445,76147,2538.233333333333
71,2538.28044075,76148.41322249999,76148,2538.266666666667,2538.86239575,76165.87187249999,76165,2538.8333333333335,2540.89372075,76226.8116225,76226,2540.866666666667,1.8541643808130175,2,1,7,2,1.0,3.0,b'SB_49_ShortA.png',2542.747885130813,76282.43655392439,76282,2542.733333333333
72,2542.76878725,76283.0636175,76283,2542.766666666667,2543.33067125,76299.9201375,76299,2543.3,2545.36208575,76360.8625725,76360,2545.3333333333335,1.7070433207554743,2,2,7,2,2.0,3.0,b'SB_31_LongA.png',2547.0691290707555,76412.07387212267,76412,2547.0666666666666
73,2547.07510875,76412.25326249999,76412,2547.0666666666666,2547.6570684999997,76429.712055,76429,2547.633333333333,2549.68825025,76490.64750749999,76490,2549.6666666666665,1.624328512349166,1,1,7,2,1.0,3.0,b'NB_2_ShortA.png',2551.312578762349,76539.37736287047,76539,2551.3
74,2551.3267029999997,76539.80109,76539,2551.3,2551.888598,76556.65794,76556,2551.866666666667,2553.9199584999997,76617.59875499998,76617,2553.9,1.8502643584506586,3,1,6,2,1.0,2.0,b'HB_18_LongA.png',2555.7702228584503,76673.1066857535,76673,2555.766666666667
75,2555.78457075,76673.5371225,76673,2555.766666666667,2556.3865942499997,76691.5978275,76691,2556.366666666667,2558.4178859999997,76752.53657999999,76752,2558.4,1.3920424384996295,2,1,3,1,2.0,2.0,b'SB_9_ShortA.png',2559.8099284384994,76794.29785315497,76794,2559.8
76,2559.831194,76794.93582,76794,2559.8,2560.4130274999998,76812.390825,76812,2560.4,2562.4444105,76873.33231499999,76873,2562.4333333333334,1.2257907242747024,1,2,7,2,2.0,3.0,b'NB_11_ShortA.png',2563.6702012242745,76910.10603672823,76910,2563.6666666666665
77,2563.6827117499997,76910.48135249999,76910,2563.6666666666665,2564.2847325,76928.541975,76928,2564.266666666667,2566.31603175,76989.4809525,76989,2566.3,1.914453973295167,2,1,7,2,1.0,3.0,b'SB_46_LongA.png',2568.2304857232953,77046.91457169886,77046,2568.2
78,2568.237048,77047.11144,77047,2568.233333333333,2568.83904525,77065.17135749999,77065,2568.8333333333335,2570.8703984999997,77126.11195499999,77126,2570.866666666667,1.6240019311662763,3,2,6,2,2.0,2.0,b'HB_58_ShortA.png',2572.494400431166,77174.83201293497,77174,2572.4666666666667
79,2572.5077524999997,77175.23257499999,77175,2572.5,2573.1500665,77194.501995,77194,2573.133333333333,2575.1811534999997,77255.43460499999,77255,2575.1666666666665,1.8620493209455162,3,2,6,2,2.0,2.0,b'HB_15_ShortA.png',2577.043202820945,77311.29608462835,77311,2577.0333333333333
80,2577.05018175,77311.5054525,77311,2577.0333333333333,2577.6320785,77328.962355,77328,2577.6,2579.66358125,77389.90743749999,77389,2579.633333333333,1.9137385598151013,2,1,3,1,2.0,2.0,b'SB_7_LongA.png',2581.577319809815,77447.31959429444,77447,2581.5666666666666
81,2581.583224,77447.49672,77447,2581.5666666666666,2582.2254935,77466.764805,77466,2582.2,2584.2568315,77527.70494499999,77527,2584.233333333333,1.6628466041292995,2,1,7,2,1.0,3.0,b'SB_22_LongA.png',2585.919678104129,77577.59034312387,77577,2585.9
82,2585.92636775,77577.7910325,77577,2585.9,2586.5484632499997,77596.45389749999,77596,2586.5333333333333,2588.5797577499998,77657.3927325,77657,2588.5666666666666,2.052854821202345,3,1,4,1,2.0,1.0,b'HB_19_LongA.png',2590.632612571202,77718.97837713607,77718,2590.6
83,2590.637972,77719.13916,77719,2590.633333333333,2591.300336,77739.01008,77739,2591.3,2593.33169925,77799.9509775,77799,2593.3,1.8906980925239623,3,2,6,2,2.0,2.0,b'HB_35_ShortA.png',2595.222397342524,77856.67192027572,77856,2595.2
84,2595.2289874999997,77856.86962499999,77856,2595.2,2595.81115525,77874.3346575,77874,2595.8,2597.8424495,77935.273485,77935,2597.8333333333335,1.9098350125132129,3,1,4,1,2.0,1.0,b'HB_24_LongA.png',2599.752284512513,77992.5685353754,77992,2599.733333333333
85,2599.7681155,77993.043465,77993,2599.766666666667,2600.4303625,78012.91087499999,78012,2600.4,2602.46174225,78073.8522675,78073,2602.4333333333334,1.9803640560712665,2,2,7,2,2.0,3.0,b'SB_30_LongA.png',2604.4421063060713,78133.26318918214,78133,2604.4333333333334
86,2604.4598895,78133.796685,78133,2604.4333333333334,2605.08177875,78152.4533625,78152,2605.0666666666666,2607.1129017499998,78213.3870525,78213,2607.1,1.2178532662801445,3,2,6,2,2.0,2.0,b'HB_5_ShortA.png',2608.33075501628,78249.9226504884,78249,2608.3
87,2608.35138275,78250.5414825,78250,2608.3333333333335,2608.95341125,78268.60233750001,78268,2608.9333333333334,2610.9847514999997,78329.54254499999,78329,2610.9666666666667,1.570122328470461,3,2,6,2,2.0,2.0,b'HB_17_LongA.png',2612.55487382847,78376.6462148541,78376,2612.5333333333333
88,2612.57484975,78377.24549249999,78377,2612.5666666666666,2613.15674325,78394.7022975,78394,2613.133333333333,2615.1881292499997,78455.6438775,78455,2615.1666666666665,1.7468158744741231,2,1,7,2,1.0,3.0,b'SB_12_ShortA.png',2616.934945124474,78508.04835373422,78508,2616.9333333333334
89,2616.94380125,78508.3140375,78508,2616.9333333333334,2617.5859742499997,78527.57922749998,78527,2617.5666666666666,2619.61726925,78588.5180775,78588,2619.6,1.3704034368274733,1,1,3,1,2.0,2.0,b'NB_12_ShortA.png',2620.9876726868274,78629.63018060483,78629,2620.9666666666667
90,2621.010215,78630.30644999999,78630,2621.0,2621.5921894999997,78647.76568499999,78647,2621.5666666666666,2623.62348075,78708.7044225,78708,2623.6,1.660686970106326,3,1,6,2,1.0,2.0,b'HB_23_ShortA.png',2625.2841677201063,78758.52503160319,78758,2625.266666666667
91,2625.2897602499997,78758.69280749999,78758,2625.266666666667,2625.9319272499997,78777.95781749999,78777,2625.9,2627.9634695,78838.904085,78838,2627.9333333333334,2.192500522476621,3,1,6,2,1.0,2.0,b'HB_36_ShortA.png',2630.1559700224766,78904.6791006743,78904,2630.133333333333
92,2630.1665915,78904.997745,78904,2630.133333333333,2630.74834925,78922.4504775,78922,2630.733333333333,2632.7798697499998,78983.3960925,78983,2632.766666666667,1.7510008848039433,1,2,3,1,1.0,2.0,b'NB_17_ShortA.png',2634.5308706348037,79035.92611904412,79035,2634.5
93,2634.54768075,79036.4304225,79036,2634.5333333333333,2635.18976475,79055.6929425,79055,2635.1666666666665,2637.221152,79116.63456,79116,2637.2,1.7847740012221038,3,2,6,2,2.0,2.0,b'HB_56_LongA.png',2639.005926001222,79170.17778003667,79170,2639.0
94,2639.02665575,79170.7996725,79170,2639.0,2639.608582,79188.25746,79188,2639.6,2641.6399122499997,79249.19736749999,79249,2641.633333333333,1.8837365028448403,2,1,7,2,1.0,3.0,b'SB_56_LongA.png',2643.5236487528446,79305.70946258534,79305,2643.5
95,2643.5412137499998,79306.23641249999,79306,2643.5333333333333,2644.1834142499997,79325.50242749999,79325,2644.1666666666665,2646.214594,79386.43782,79386,2646.2,1.255000663921237,3,2,3,1,1.0,2.0,b'HB_37_ShortA.png',2647.4695946639213,79424.08783991764,79424,2647.4666666666667
96,2647.493797,79424.81391,79424,2647.4666666666667,2648.095859,79442.87577,79442,2648.0666666666666,2650.1271872499997,79503.81561749999,79503,2650.1,1.710145961958915,1,2,7,2,2.0,3.0,b'NB_6_LongA.png',2651.8373332119586,79555.11999635876,79555,2651.8333333333335
97,2651.8444757499997,79555.3342725,79555,2651.8333333333335,2652.46659925,79573.9979775,79573,2652.4333333333334,2654.49750025,79634.9250075,79634,2654.4666666666667,1.8761149633210152,1,2,2,1,1.0,3.0,b'NB_29_ShortA.png',2656.373615213321,79691.20845639963,79691,2656.366666666667
98,2656.3877872499997,79691.63361749999,79691,2656.366666666667,2657.0097299999998,79710.2919,79710,2657.0,2659.0412965,79771.238895,79771,2659.0333333333333,1.1615871454123408,2,1,7,2,1.0,3.0,b'SB_55_LongA.png',2660.2028836454124,79806.08650936237,79806,2660.2
99,2660.22069575,79806.62087249999,79806,2660.2,2660.7625545,79822.87663500001,79822,2660.733333333333,2662.7938369999997,79883.81511,79883,2662.766666666667,2.0112819911446422,2,2,2,1,1.0,3.0,b'SB_11_LongA.png',2664.8051189911444,79944.15356973434,79944,2664.8
100,2664.81417225,79944.4251675,79944,2664.8,2665.39608075,79961.8824225,79961,2665.366666666667,2667.42772775,80022.8318325,80022,2667.4,1.703425837913528,1,2,7,2,2.0,3.0,b'NB_21_ShortA.png',2669.1311535879136,80073.9346076374,80073,2669.1
101,2669.1416464999998,80074.24939499999,80074,2669.133333333333,2669.743836,80092.31508,80092,2669.733333333333,2671.7745115,80153.235345,80153,2671.766666666667,2.2221475071273744,3,1,3,1,2.0,2.0,b'HB_55_ShortA.png',2673.996659007127,80219.89977021381,80219,2673.9666666666667
102,2674.0135392499997,80220.40617749999,80220,2674.0,2674.6757507499997,80240.27252249999,80240,2674.6666666666665,2676.7070095,80301.210285,80301,2676.7,1.6218829059507698,1,1,2,1,2.0,3.0,b'NB_18_ShortA.png',2678.3288924059507,80349.86677217852,80349,2678.3
103,2678.347203,80350.41609,80350,2678.3333333333335,2679.009456,80370.28368,80370,2679.0,2681.040614,80431.21842,80431,2681.0333333333333,0.9385677926475182,2,2,7,2,2.0,3.0,b'SB_15_ShortA.png',2681.9791817926475,80459.37545377943,80459,2681.9666666666667
104,2682.0013695,80460.04108499999,80460,2682.0,2682.6435899999997,80479.30769999999,80479,2682.633333333333,2684.6748635,80540.245905,80540,2684.6666666666665,1.7592342752031982,1,1,2,1,2.0,3.0,b'NB_15_ShortA.png',2686.434097775203,80593.0229332561,80593,2686.4333333333334
105,2686.4451839999997,80593.35552,80593,2686.4333333333334,2687.00710425,80610.2131275,80610,2687.0,2689.0384517499997,80671.15355249999,80671,2689.0333333333333,1.7764482542406768,1,1,2,1,2.0,3.0,b'NB_24_ShortA.png',2690.8149000042404,80724.44700012721,80724,2690.8
106,2690.8231834999997,80724.695505,80724,2690.8,2691.40508625,80742.1525875,80742,2691.4,2693.4363885,80803.091655,80803,2693.4333333333334,1.8591852642130107,1,2,7,2,2.0,3.0,b'NB_3_ShortA.png',2695.295573764213,80858.86721292639,80858,2695.266666666667
107,2695.3207307499997,80859.6219225,80859,2695.3,2695.922802,80877.68406,80877,2695.9,2697.9541369999997,80938.62410999999,80938,2697.9333333333334,1.8768818505341187,3,1,6,2,1.0,2.0,b'HB_54_ShortA.png',2699.831018850534,80994.93056551601,80994,2699.8
108,2699.85580875,80995.6742625,80995,2699.8333333333335,2700.47795125,81014.33853749999,81014,2700.4666666666667,2702.50929125,81075.2787375,81075,2702.5,1.7327363995136693,3,2,6,2,2.0,2.0,b'HB_49_LongA.png',2704.2420276495136,81127.26082948541,81127,2704.233333333333
109,2704.26380425,81127.9141275,81127,2704.233333333333,2704.8858972499997,81146.57691749999,81146,2704.866666666667,2706.91721925,81207.5165775,81207,2706.9,1.9722333131358027,1,2,7,2,2.0,3.0,b'NB_10_ShortA.png',2708.889452563136,81266.68357689408,81266,2708.866666666667
110,2708.90971975,81267.2915925,81267,2708.9,2709.471604,81284.14812,81284,2709.4666666666667,2711.50293925,81345.0881775,81345,2711.5,1.4158622209215537,2,2,3,1,1.0,2.0,b'SB_26_ShortA.png',2712.9188014709216,81387.56404412765,81387,2712.9
111,2712.941432,81388.24296,81388,2712.9333333333334,2713.54331,81406.2993,81406,2713.5333333333333,2715.57472925,81467.2418775,81467,2715.5666666666666,1.7659184410003945,1,1,3,1,2.0,2.0,b'NB_3_LongA.png',2717.3406476910004,81520.21943073001,81520,2717.3333333333335
112,2717.351701,81520.55103,81520,2717.3333333333335,2717.973794,81539.21382,81539,2717.9666666666667,2720.0050107499997,81600.15032249999,81600,2720.0,1.538483900949359,1,2,7,2,2.0,3.0,b'NB_4_ShortA.png',2721.543494650949,81646.30483952847,81646,2721.5333333333333
113,2721.56364575,81646.9093725,81646,2721.5333333333333,2722.2058155,81666.174465,81666,2722.2,2724.2371317499997,81727.11395249999,81727,2724.233333333333,1.8348566729109734,2,1,2,1,2.0,3.0,b'SB_57_ShortA.png',2726.0719884229106,81782.15965268732,81782,2726.0666666666666
114,2726.0841717499998,81782.52515249999,81782,2726.0666666666666,2726.6660159999997,81799.98047999998,81799,2726.633333333333,2728.69744675,81860.9234025,81860,2728.6666666666665,1.5827490157680586,3,1,6,2,1.0,2.0,b'HB_10_ShortA.png',2730.280195765768,81908.40587297305,81908,2730.266666666667
115,2730.3021965,81909.06589499999,81909,2730.3,2730.8640875,81925.922625,81925,2730.8333333333335,2732.8952504999997,81986.857515,81986,2732.866666666667,1.2454261380480602,1,2,2,1,1.0,3.0,b'NB_13_LongA.png',2734.140676638048,82024.22029914144,82024,2734.133333333333
116,2734.1595115,82024.785345,82024,2734.133333333333,2734.74147225,82042.2441675,82042,2734.733333333333,2736.7726909999997,82103.18073,82103,2736.766666666667,1.411525365198031,1,2,7,2,2.0,3.0,b'NB_16_ShortA.png',2738.1842163651977,82145.52649095593,82145,2738.1666666666665
117,2738.200299,82146.00897,82146,2738.2,2738.74199375,82162.2598125,82162,2738.733333333333,2740.77334875,82223.2004625,82223,2740.766666666667,1.3719653607113287,1,1,7,2,1.0,3.0,b'NB_2_LongA.png',2742.1453141107113,82264.35942332134,82264,2742.133333333333
118,2742.16701175,82265.01035249999,82265,2742.1666666666665,2742.8091845,82284.275535,82284,2742.8,2744.8405009999997,82345.21502999999,82345,2744.8333333333335,2.092000363743864,3,1,2,1,2.0,3.0,b'HB_34_ShortA.png',2746.9325013637435,82407.97504091231,82407,2746.9
119,2746.94243775,82408.2731325,82408,2746.9333333333334,2747.5645514999997,82426.93654499999,82426,2747.5333333333333,2749.59600075,82487.8800225,82487,2749.5666666666666,1.474190274020657,3,1,7,2,1.0,3.0,b'HB_47_ShortA.png',2751.0701910240205,82532.10573072062,82532,2751.0666666666666
120,2751.08590475,82532.5771425,82532,2751.0666666666666,2751.6478092499997,82549.4342775,82549,2751.633333333333,2753.67910925,82610.3732775,82610,2753.6666666666665,1.426856306497939,2,1,7,2,1.0,3.0,b'SB_51_LongA.png',2755.1059655564977,82653.17896669493,82653,2755.1
121,2755.113007,82653.39021,82653,2755.1,2755.715159,82671.45477,82671,2755.7,2757.7463895,82732.39168500001,82732,2757.733333333333,1.4362996323034167,1,1,3,1,2.0,2.0,b'NB_30_LongA.png',2759.1826891323035,82775.48067396911,82775,2759.1666666666665
122,2759.20162875,82776.0488625,82776,2759.2,2759.8237907499997,82794.71372249999,82794,2759.8,2761.85502575,82855.6507725,82855,2761.8333333333335,1.7794124119682238,2,1,3,1,2.0,2.0,b'SB_8_ShortA.png',2763.6344381619683,82909.03314485904,82909,2763.633333333333
123,2763.64098175,82909.22945249999,82909,2763.633333333333,2764.22299725,82926.6899175,82926,2764.2,2766.25427575,82987.6282725,82987,2766.233333333333,2.3868420649087057,3,1,7,2,1.0,3.0,b'HB_9_LongA.png',2768.6411178149087,83059.23353444727,83059,2768.633333333333
124,2768.65347775,83059.6043325,83059,2768.633333333333,2769.2354634999997,83077.06390499999,83077,2769.233333333333,2771.2666477499997,83137.99943249999,83137,2771.233333333333,1.8177789285546169,2,2,7,2,2.0,3.0,b'SB_40_ShortA.png',2773.0844266785543,83192.53280035662,83192,2773.0666666666666
125,2773.1061342499997,83193.18402749998,83193,2773.1,2773.7483024999997,83212.449075,83212,2773.733333333333,2775.77953025,83273.3859075,83273,2775.766666666667,1.3607689490308985,2,2,2,1,1.0,3.0,b'SB_20_LongA.png',2777.140299199031,83314.20897597092,83314,2777.133333333333
126,2777.1599075,83314.797225,83314,2777.133333333333,2777.78200575,83333.4601725,83333,2777.766666666667,2779.8132619999997,83394.39786,83394,2779.8,1.8998964256606996,2,1,7,2,1.0,3.0,b'SB_23_shortA.png',2781.7131584256604,83451.39475276982,83451,2781.7
127,2781.71879675,83451.5639025,83451,2781.7,2782.3406529999997,83470.21959,83470,2782.3333333333335,2784.3721575,83531.164725,83531,2784.366666666667,1.9429395362967625,1,2,7,2,2.0,3.0,b'NB_12_LongA.png',2786.3150970362967,83589.4529110889,83589,2786.3
128,2786.33415625,83590.0246875,83590,2786.3333333333335,2786.956186,83608.68557999999,83608,2786.9333333333334,2788.98756925,83669.6270775,83669,2788.9666666666667,1.6733377275522798,3,1,7,2,1.0,3.0,b'HB_7_LongA.png',2790.6609069775523,83719.82720932657,83719,2790.633333333333
129,2790.67950225,83720.3850675,83720,2790.6666666666665,2791.26149175,83737.8447525,83737,2791.233333333333,2793.29280375,83798.7841125,83798,2793.266666666667,1.347608091775328,1,1,7,2,1.0,3.0,b'NB_28_LongA.png',2794.6404118417754,83839.21235525326,83839,2794.633333333333
130,2794.6569114999998,83839.70734499999,83839,2794.633333333333,2795.218641,83856.55923,83856,2795.2,2797.2500175,83917.500525,83917,2797.233333333333,1.4359813495539129,3,1,3,1,2.0,2.0,b'HB_3_LongA.png',2798.685998849554,83960.57996548661,83960,2798.6666666666665
131,2798.7096675,83961.290025,83961,2798.7,2799.331748,83979.95244000001,83979,2799.3,2801.3630614999997,84040.89184499999,84040,2801.3333333333335,1.7439840864390135,1,1,7,2,1.0,3.0,b'NB_27_ShortA.png',2803.1070455864387,84093.21136759316,84093,2803.1
132,2803.1173974999997,84093.521925,84093,2803.1,2803.739499,84112.18496999999,84112,2803.733333333333,2805.77071625,84173.1214875,84173,2805.766666666667,1.2062488353112713,1,2,7,2,2.0,3.0,b'NB_10_LongA.png',2806.9769650853113,84209.30895255934,84209,2806.9666666666667
133,2806.9887007499997,84209.66102249999,84209,2806.9666666666667,2807.610796,84228.32388,84228,2807.6,2809.641956,84289.25868,84289,2809.633333333333,1.3212447038386017,3,2,7,2,2.0,3.0,b'HB_32_LongA.png',2810.9632007038385,84328.89602111516,84328,2810.9333333333334
134,2810.97130775,84329.1392325,84329,2810.9666666666667,2811.5130575,84345.391725,84345,2811.5,2813.54445375,84406.33361249999,84406,2813.5333333333333,1.501662407652475,1,1,7,2,1.0,3.0,b'NB_8_LongA.png',2815.0461161576522,84451.38348472957,84451,2815.0333333333333
135,2815.05408925,84451.6226775,84451,2815.0333333333333,2815.6762009999998,84470.28602999999,84470,2815.6666666666665,2817.707454,84531.22361999999,84531,2817.7,1.6339065976208076,3,2,3,1,1.0,2.0,b'HB_28_ShortA.png',2819.3413605976207,84580.24081792861,84580,2819.3333333333335
136,2819.3519322499997,84580.55796749999,84580,2819.3333333333335,2819.99400175,84599.8200525,84599,2819.9666666666667,2822.0252982499997,84660.75894749998,84660,2822.0,1.703472911962308,2,2,3,1,1.0,2.0,b'SB_42_ShortA.png',2823.728771161962,84711.86313485885,84711,2823.7
137,2823.7466345,84712.399035,84712,2823.733333333333,2824.368704,84731.06112,84731,2824.366666666667,2826.400065,84792.00194999999,84792,2826.4,1.7425748218083754,3,2,7,2,2.0,3.0,b'HB_29_ShortA.png',2828.142639821808,84844.27919465424,84844,2828.133333333333
138,2828.1539669999997,84844.61901,84844,2828.133333333333,2828.7558262499997,84862.67478749999,84862,2828.733333333333,2830.787188,84923.61563999999,84923,2830.766666666667,1.6133565944619477,3,2,7,2,2.0,3.0,b'HB_16_ShortA.png',2832.4005445944617,84972.01633783385,84972,2832.4
139,2832.4128195,84972.38458499999,84972,2832.4,2833.0349125,84991.047375,84991,2833.0333333333333,2835.0662187499997,85051.9865625,85051,2835.0333333333333,1.6184672773815691,2,2,2,1,1.0,3.0,b'SB_44_LongA.png',2836.6846860273813,85100.54058082144,85100,2836.6666666666665
140,2836.694568,85100.83704,85100,2836.6666666666665,2837.2966155,85118.89846499999,85118,2837.266666666667,2839.3274315,85179.82294499999,85179,2839.3,1.5139815981965512,3,2,7,2,2.0,3.0,b'HB_21_ShortA.png',2840.8414130981964,85225.24239294589,85225,2840.8333333333335
141,2840.85851225,85225.7553675,85225,2840.8333333333335,2841.460565,85243.81695,85243,2841.4333333333334,2843.491839,85304.75516999999,85304,2843.4666666666667,1.8986240720842034,3,1,7,2,1.0,3.0,b'HB_27_ShortA.png',2845.390463072084,85361.71389216252,85361,2845.366666666667
142,2845.4096084999996,85362.28825499999,85362,2845.4,2846.0114102499997,85380.34230749999,85380,2846.0,2848.0432415,85441.297245,85441,2848.0333333333333,1.4956232444383204,3,2,7,2,2.0,3.0,b'HB_42_LongA.png',2849.5388647444383,85486.16594233314,85486,2849.5333333333333
143,2849.5535892499997,85486.6076775,85486,2849.5333333333333,2850.11548625,85503.4645875,85503,2850.1,2852.146801,85564.40402999999,85564,2852.133333333333,1.955772515386343,2,2,2,1,1.0,3.0,b'SB_39_LongA.png',2854.102573515386,85623.07720546158,85623,2854.1
144,2854.124767,85623.74300999999,85623,2854.1,2854.746894,85642.40682,85642,2854.733333333333,2856.77816675,85703.34500249999,85703,2856.766666666667,1.8110478996532038,3,1,7,2,1.0,3.0,b'HB_60_LongA.png',2858.589214649653,85757.67643948959,85757,2858.5666666666666
145,2858.61027875,85758.3083625,85758,2858.6,2859.192258,85775.76774,85775,2859.1666666666665,2861.2235305,85836.705915,85836,2861.2,1.6481623124564067,3,2,7,2,2.0,3.0,b'HB_38_LongA.png',2862.8716928124563,85886.15078437369,85886,2862.866666666667
146,2862.88274225,85886.48226749999,85886,2862.866666666667,2863.48478275,85904.5434825,85904,2863.4666666666667,2865.5159667499997,85965.4790025,85965,2865.5,1.9187495746882632,3,1,2,1,2.0,3.0,b'HB_22_LongA.png',2867.434716324688,86023.04148974064,86023,2867.4333333333334
147,2867.45180425,86023.5541275,86023,2867.4333333333334,2868.03376975,86041.0130925,86041,2868.0333333333333,2870.0650625,86101.951875,86101,2870.0333333333333,1.5561943413922563,1,1,7,2,1.0,3.0,b'NB_20_ShortA.png',2871.621256841392,86148.63770524177,86148,2871.6
148,2871.63973375,86149.19201249999,86149,2871.633333333333,2872.2417575,86167.252725,86167,2872.233333333333,2874.273046,86228.19137999999,86228,2874.266666666667,1.436495607951656,1,2,7,2,2.0,3.0,b'NB_7_ShortA.png',2875.7095416079515,86271.28624823854,86271,2875.7
149,2875.7198037499998,86271.5941125,86271,2875.7,2876.30179,86289.0537,86289,2876.3,2878.3329685,86349.989055,86349,2878.3,1.5332257805857807,2,1,2,1,2.0,3.0,b'SB_6_LongA.png',2879.8661942805857,86395.98582841757,86395,2879.8333333333335
150,2879.873616,86396.20848,86396,2879.866666666667,2880.4755955,86414.267865,86414,2880.4666666666667,2882.5068254999996,86475.20476499999,86475,2882.5,1.8301288724178448,1,1,7,2,1.0,3.0,b'NB_14_LongA.png',2884.3369543724175,86530.10863117252,86530,2884.3333333333335
151,2884.3426655,86530.279965,86530,2884.3333333333335,2884.9647225,86548.941675,86548,2884.9333333333334,2886.9960885,86609.882655,86609,2886.9666666666667,1.4938268332043663,1,2,7,2,2.0,3.0,b'NB_17_LongA.png',2888.4899153332044,86654.69745999612,86654,2888.4666666666667
152,2888.50764575,86655.2293725,86655,2888.5,2889.1498815,86674.496445,86674,2889.133333333333,2891.181166,86735.43497999999,86735,2891.1666666666665,1.2155886869877577,2,1,2,1,2.0,3.0,b'SB_2_LongA.png',2892.3967546869876,86771.90264060962,86771,2892.366666666667
153,2892.4061715,86772.185145,86772,2892.4,2893.0483345,86791.45003499999,86791,2893.0333333333333,2895.079527,86852.38580999999,86852,2895.0666666666666,1.259394661639817,3,1,7,2,1.0,3.0,b'HB_48_ShortA.png',2896.3389216616397,86890.16764984919,86890,2896.3333333333335
154,2896.34912325,86890.4736975,86890,2896.3333333333335,2896.9912765,86909.738295,86909,2896.9666666666667,2899.0225535,86970.676605,86970,2899.0,1.8336019865237176,2,2,7,2,2.0,3.0,b'SB_24_LongA.png',2900.8561554865237,87025.68466459571,87025,2900.8333333333335
155,2900.87723075,87026.3169225,87026,2900.866666666667,2901.4190555,87042.571665,87042,2901.4,2903.44984225,87103.4952675,87103,2903.4333333333334,1.8863679241621867,1,2,7,2,2.0,3.0,b'NB_22_LongA.png',2905.3362101741623,87160.08630522486,87160,2905.3333333333335
156,2905.354117,87160.62350999999,87160,2905.3333333333335,2905.9560119999996,87178.68035999998,87178,2905.9333333333334,2907.98744725,87239.6234175,87239,2907.9666666666667,1.410563828307204,1,2,2,1,1.0,3.0,b'NB_19_LongA.png',2909.3980110783073,87281.94033234922,87281,2909.366666666667
157,2909.406078,87282.18234,87282,2909.4,2909.9679375,87299.038125,87299,2909.9666666666667,2911.9986892499996,87359.96067749998,87359,2911.9666666666667,1.8828192411456257,2,2,7,2,2.0,3.0,b'SB_21_LongA.png',2913.8815084911453,87416.44525473435,87416,2913.866666666667
158,2913.8897819999997,87416.69346,87416,2913.866666666667,2914.4717175,87434.15152500001,87434,2914.4666666666667,2916.50306375,87495.0919125,87495,2916.5,2.016597167472355,3,1,7,2,1.0,3.0,b'HB_20_LongA.png',2918.5196609174723,87555.58982752416,87555,2918.5
159,2918.54179175,87556.2537525,87556,2918.5333333333333,2919.1839569999997,87575.51870999999,87575,2919.1666666666665,2921.2152335,87636.457005,87636,2921.2,1.2803836297243834,1,1,2,1,2.0,3.0,b'NB_14_ShortA.png',2922.4956171297245,87674.86851389174,87674,2922.4666666666667
160,2922.5186947499997,87675.5608425,87675,2922.5,2923.1407965,87694.223895,87694,2923.133333333333,2925.17208475,87755.16254250001,87755,2925.1666666666665,1.7286212648032233,1,2,7,2,2.0,3.0,b'NB_15_LongA.png',2926.9007060148033,87807.0211804441,87807,2926.9
161,2926.90666175,87807.1998525,87807,2926.9,2927.5488622499997,87826.4658675,87826,2927.5333333333333,2929.5801585,87887.404755,87887,2929.5666666666666,2.050183376763016,1,1,7,2,1.0,3.0,b'NB_1_LongA.png',2931.630341876763,87948.91025630289,87948,2931.6
162,2931.6369635,87949.108905,87949,2931.633333333333,2932.1986985,87965.960955,87965,2932.1666666666665,2934.23003775,88026.9011325,88026,2934.2,1.9112907949602231,1,2,7,2,2.0,3.0,b'NB_6_ShortA.png',2936.1413285449603,88084.23985634881,88084,2936.133333333333
163,2936.1548239999997,88084.64472,88084,2936.133333333333,2936.7169145,88101.50743499999,88101,2936.7,2938.7481802499997,88162.4454075,88162,2938.733333333333,1.4182413909584284,3,1,2,1,2.0,3.0,b'HB_41_ShortA.png',2940.166421640958,88204.99264922875,88204,2940.133333333333
164,2940.1887162499997,88205.6614875,88205,2940.1666666666665,2940.850669,88225.52007,88225,2940.8333333333335,2942.8822345,88286.467035,88286,2942.866666666667,1.300811910070479,2,1,2,1,2.0,3.0,b'SB_27_ShortA.png',2944.1830464100703,88325.49139230211,88325,2944.1666666666665
165,2944.2007449999996,88326.02234999998,88326,2944.2,2944.762778,88342.88334,88342,2944.733333333333,2946.794049,88403.82147,88403,2946.766666666667,1.845595408580266,1,1,7,2,1.0,3.0,b'NB_7_LongA.png',2948.6396444085804,88459.1893322574,88459,2948.633333333333
166,2948.6497085,88459.491255,88459,2948.633333333333,2949.2517384999996,88477.55215499998,88477,2949.233333333333,2951.28302925,88538.4908775,88538,2951.266666666667,1.4721209106501192,3,2,7,2,2.0,3.0,b'HB_44_LongA.png',2952.75515016065,88582.6545048195,88582,2952.733333333333
167,2952.77594075,88583.2782225,88583,2952.766666666667,2953.4182395,88602.54718499999,88602,2953.4,2955.4494744999997,88663.484235,88663,2955.4333333333334,2.156219614087604,2,2,2,1,1.0,3.0,b'SB_5_ShortA.png',2957.6056941140873,88728.17082342262,88728,2957.6
168,2957.62970125,88728.8910375,88728,2957.6,2958.2714834999997,88748.14450499999,88748,2958.266666666667,2960.302742,88809.08226,88809,2960.3,2.0323892823653296,3,2,7,2,2.0,3.0,b'HB_1_ShortA.png',2962.335131282365,88870.05393847096,88870,2962.3333333333335
169,2962.34892975,88870.4678925,88870,2962.3333333333335,2963.01115,88890.3345,88890,2963.0,2965.042459,88951.27377,88951,2965.0333333333333,1.7390836850972846,1,1,7,2,1.0,3.0,b'NB_30_ShortA.png',2966.781542685097,89003.44628055292,89003,2966.766666666667
170,2966.800404,89004.01212,89004,2966.8,2967.3623187499998,89020.8695625,89020,2967.3333333333335,2969.3936842499998,89081.8105275,89081,2969.366666666667,1.9975964687764645,1,2,7,2,2.0,3.0,b'NB_16_LongA.png',2971.391280718776,89141.73842156329,89141,2971.366666666667
171,2971.39896825,89141.9690475,89141,2971.366666666667,2971.94066025,89158.21980749999,89158,2971.9333333333334,2973.9719862499996,89219.15958749999,89219,2973.9666666666667,1.1757545059081167,2,2,2,1,1.0,3.0,b'SB_3_ShortA.png',2975.1477407559078,89254.43222267723,89254,2975.133333333333
172,2975.1576634999997,89254.72990499999,89254,2975.133333333333,2975.73962475,89272.1887425,89272,2975.733333333333,2977.77094825,89333.1284475,89333,2977.766666666667,1.2734783149790019,2,1,2,1,2.0,3.0,b'SB_33_ShortA.png',2979.044426564979,89371.33279694937,89371,2979.0333333333333
173,2979.060672,89371.82016,89371,2979.0333333333333,2979.6827485,89390.48245499999,89390,2979.6666666666665,2981.71408425,89451.42252749999,89451,2981.7,1.806236830772832,2,1,2,1,2.0,3.0,b'SB_18_ShortA.png',2983.5203210807726,89505.60963242318,89505,2983.5
174,2983.5299192499997,89505.89757749999,89505,2983.5,2984.171933,89525.15799,89525,2984.1666666666665,2986.20333575,89586.1000725,89586,2986.2,1.920055702328682,1,2,7,2,2.0,3.0,b'NB_9_ShortA.png',2988.1233914523286,89643.70174356987,89643,2988.1
175,2988.1288944999997,89643.866835,89643,2988.1,2988.771178,89663.13534,89663,2988.766666666667,2990.8023645,89724.070935,89724,2990.8,2.246610363596119,3,2,7,2,2.0,3.0,b'HB_26_LongA.png',2993.048974863596,89791.46924590788,89791,2993.0333333333333
176,2993.06100025,89791.83000749999,89791,2993.0333333333333,2993.6429255,89809.287765,89809,2993.633333333333,2995.6742222499997,89870.22666749998,89870,2995.6666666666665,1.6014214713359252,3,2,7,2,2.0,3.0,b'HB_13_LongA.png',2997.2756437213357,89918.26931164006,89918,2997.266666666667
177,2997.281,89918.43,89918,2997.266666666667,2997.86307375,89935.8922125,89935,2997.8333333333335,2999.8943455,89996.830365,89996,2999.866666666667,1.4982788105262443,1,1,7,2,1.0,3.0,b'NB_22_ShortA.png',3001.392624310526,90041.77872931579,90041,3001.366666666667
178,3001.40270225,90042.0810675,90042,3001.4,3001.98462975,90059.5388925,90059,3001.9666666666667,3004.015962,90120.47886,90120,3004.0,1.612845262279734,1,2,7,2,2.0,3.0,b'NB_23_LongA.png',3005.6288072622797,90168.8642178684,90168,3005.6
179,3005.6994207499997,90170.98262249999,90170,3005.6666666666665,3006.2544264999997,90187.63279499998,90187,3006.233333333333,3008.295049,90248.85147,90248,3008.266666666667,0.7768753474811092,2,1,7,2,1.0,3.0,b'SB_30_ShortA.png',3009.071924347481,90272.15773042443,90272,3009.0666666666666
180,3009.1001265,90273.003795,90273,3009.1,3009.6879905,90290.639715,90290,3009.6666666666665,3011.7554902499996,90352.6647075,90352,3011.733333333333,1.0962555239675567,2,2,3,1,1.0,2.0,b'SB_30_LongA.png',3012.851745773967,90385.55237321902,90385,3012.8333333333335
