trial_num,fixcross_time,fixation_HZ,fixation_bin,fixation_regarded,start_time,Fstart_HZ,Fstart_bin,Fstart_regarded,stop_time,Fstop_HZ,Fstop_bin,Fstop_regarded,RT,boundary_type,key,resp_value,leftright,accuracy,confidence,frameName,response_time,response_HZ,response_bin,response_regarded
1,2137.686777,64130.60331,64130,2137.6666666666665,2138.3691277499997,64151.07383249999,64151,2138.366666666667,2140.42306125,64212.6918375,64212,2140.4,0.0,2,2,1,1,1.0,0.0,b'SB_14_LongA.png',2140.42306125,64212.6918375,64212,2140.4
2,2141.9458852499997,64258.37655749999,64258,2141.9333333333334,2142.5880952499997,64277.64285749999,64277,2142.5666666666666,2144.6197939999997,64338.593819999995,64338,2144.6,1.1362644633481978,3,1,2,1,2.0,3.0,b'HB_58_ShortA.png',2145.756058463348,64372.68175390044,64372,2145.733333333333
3,2145.776264,64373.28792,64373,2145.766666666667,2146.39838275,64391.9514825,64391,2146.366666666667,2148.4300585,64452.901755,64452,2148.4,1.5656781742873136,1,1,3,1,2.0,2.0,b'NB_17_LongA.png',2149.9957366742874,64499.87210022862,64499,2149.9666666666667
4,2150.0189795,64500.569385,64500,2150.0,2150.6209787499997,64518.62936249999,64518,2150.6,2152.652448,64579.57343999999,64579,2152.633333333333,-0.4093460990843596,2,2,7,2,2.0,3.0,b'SB_17_LongA.png',2152.2431019009155,64567.29305702746,64567,2152.233333333333
5,2152.2682529999997,64568.047589999995,64568,2152.266666666667,2152.930331,64587.90993,64587,2152.9,2154.9855147499998,64649.565442499996,64649,2154.9666666666667,3.36863692352199,3,1,2,1,2.0,3.0,b'HB_36_LongA.png',2158.3541516735218,64750.624550205655,64750,2158.3333333333335
6,2158.380077,64751.40230999999,64751,2158.366666666667,2159.002001,64770.06002999999,64770,2159.0,2161.03354325,64831.006297500004,64831,2161.0333333333333,0.5294529782113386,3,2,7,2,2.0,3.0,b'HB_12_LongA.png',2161.5629962282114,64846.889886846344,64846,2161.5333333333333
7,2161.59246925,64847.77407749999,64847,2161.5666666666666,2162.17450475,64865.235142499994,64865,2162.1666666666665,2164.20584275,64926.1752825,64926,2164.2,1.1841944691404933,1,1,3,1,2.0,2.0,b'NB_17_ShortA.png',2165.3900372191406,64961.701116574215,64961,2165.366666666667
8,2165.40215725,64962.064717500005,64962,2165.4,2166.024249,64980.72747,64980,2166.0,2168.055427,65041.662809999994,65041,2168.0333333333333,1.8430124540464021,1,2,6,2,2.0,2.0,b'NB_30_ShortA.png',2169.898439454046,65096.95318362139,65096,2169.866666666667
9,2169.91597625,65097.4792875,65097,2169.9,2170.5581985,65116.745955,65116,2170.5333333333333,2172.5895084999997,65177.68525499999,65177,2172.5666666666666,2.6818520116066793,1,1,3,1,2.0,2.0,b'NB_13_LongA.png',2175.2713605116064,65258.14081534819,65258,2175.266666666667
10,2175.2871735,65258.615204999995,65258,2175.266666666667,2175.8891854999997,65276.67556499999,65276,2175.866666666667,2177.9205724999997,65337.61717499999,65337,2177.9,1.0261017334851203,2,2,7,2,2.0,3.0,b'SB_58_LongA.png',2178.946674233485,65368.400227004546,65368,2178.9333333333334
11,2178.9630469999997,65368.89140999999,65368,2178.9333333333334,2179.54474425,65386.342327499995,65386,2179.5333333333333,2181.5762305,65447.286915,65447,2181.5666666666666,3.242037688338314,1,2,6,2,2.0,2.0,b'NB_22_LongA.png',2184.818268188338,65544.54804565014,65544,2184.8
12,2184.84014825,65545.2044475,65545,2184.8333333333335,2185.50244075,65565.0732225,65565,2185.5,2187.53375775,65626.01273249999,65626,2187.5333333333333,3.0550839671632275,1,2,6,2,2.0,2.0,b'NB_29_LongA.png',2190.588841717163,65717.66525151489,65717,2190.5666666666666
13,2190.60591825,65718.17754749999,65718,2190.6,2191.2480685,65737.442055,65737,2191.233333333333,2193.27872825,65798.3618475,65798,2193.266666666667,4.120665612499579,3,2,7,2,2.0,3.0,b'HB_28_ShortA.png',2197.3993938624994,65921.98181587498,65921,2197.366666666667
14,2197.4052257499998,65922.15677249999,65922,2197.4,2198.0072885,65940.218655,65940,2198.0,2200.038517,66001.15551,66001,2200.0333333333333,1.1789067529753083,3,1,2,1,2.0,3.0,b'HB_59_LongA.png',2201.2174237529753,66036.52271258926,66036,2201.2
15,2201.23597575,66037.07927249999,66037,2201.233333333333,2201.85803275,66055.74098249999,66055,2201.8333333333335,2203.88937675,66116.6813025,66116,2203.866666666667,-0.3039269844593946,1,2,5,2,2.0,1.0,b'NB_8_LongA.png',2203.5854497655405,66107.56349296622,66107,2203.5666666666666
16,2203.59727075,66107.9181225,66107,2203.5666666666666,2204.259499,66127.78497,66127,2204.233333333333,2206.2907744999998,66188.723235,66188,2206.266666666667,0.31975483636779245,2,2,7,2,2.0,3.0,b'SB_3_ShortA.png',2206.6105293363676,66198.31588009103,66198,2206.6
17,2206.6272089999998,66198.81627,66198,2206.6,2207.2091925,66216.275775,66216,2207.2,2209.2405055,66277.215165,66277,2209.233333333333,1.5539410915080225,3,1,2,1,2.0,3.0,b'HB_32_LongA.png',2210.794446591508,66323.83339774524,66323,2210.766666666667
18,2210.8043764999998,66324.131295,66324,2210.8,2211.46662625,66343.9987875,66343,2211.4333333333334,2213.497886,66404.93658000001,66404,2213.4666666666667,2.825259867531713,2,1,2,1,2.0,3.0,b'SB_50_ShortA.png',2216.323145867532,66489.69437602596,66489,2216.3
19,2216.3476485,66490.429455,66490,2216.3333333333335,2217.00988275,66510.29648250001,66510,2217.0,2219.04119775,66571.2359325,66571,2219.0333333333333,2.2453163449827116,1,1,3,1,2.0,2.0,b'NB_20_ShortA.png',2221.2865140949825,66638.59542284948,66638,2221.266666666667
20,2221.3007015,66639.021045,66639,2221.3,2221.92276225,66657.6828675,66657,2221.9,2223.9540475,66718.62142499999,66718,2223.9333333333334,1.2465676911670016,2,2,7,2,2.0,3.0,b'SB_21_LongA.png',2225.200615191167,66756.018455735,66756,2225.2
21,2225.210728,66756.32184,66756,2225.2,2225.8730272499997,66776.1908175,66776,2225.866666666667,2227.9043375,66837.130125,66837,2227.9,-1.6743937423452735,1,1,3,1,2.0,2.0,b'NB_27_LongA.png',2226.229943757655,66786.89831272964,66786,2226.2
22,2226.24423275,66787.32698249999,66787,2226.233333333333,2226.86616125,66805.9848375,66805,2226.8333333333335,2228.8975875,66866.927625,66866,2228.866666666667,0.038819816065370105,1,1,3,1,2.0,2.0,b'NB_9_ShortA.png',2228.9364073160655,66868.09221948196,66868,2228.9333333333334
23,2228.94868175,66868.4604525,66868,2228.9333333333334,2229.51047075,66885.3141225,66885,2229.5,2231.541859,66946.25577,66946,2231.5333333333333,0.9157212775025982,1,1,3,1,2.0,2.0,b'NB_1_ShortA.png',2232.4575802775025,66973.72740832508,66973,2232.4333333333334
24,2232.4784757499997,66974.35427249999,66974,2232.4666666666667,2233.08043075,66992.41292249999,66992,2233.0666666666666,2235.1118444999997,67053.35533499999,67053,2235.1,3.1643886913516326,3,2,2,1,1.0,3.0,b'HB_23_ShortA.png',2238.2762331913514,67148.28699574053,67148,2238.266666666667
25,2238.28497875,67148.5493625,67148,2238.266666666667,2238.8668075,67166.004225,67166,2238.866666666667,2240.89832825,67226.9498475,67226,2240.866666666667,1.953511997096939,1,2,6,2,2.0,2.0,b'NB_9_LongA.png',2242.851840247097,67285.55520741291,67285,2242.8333333333335
26,2242.87098225,67286.1294675,67286,2242.866666666667,2243.45302225,67303.59066749999,67303,2243.4333333333334,2245.4842667499997,67364.5280025,67364,2245.4666666666667,6.139534545291099,3,1,2,1,2.0,3.0,b'HB_56_LongA.png',2251.623801295291,67548.71403885873,67548,2251.6
27,2251.64137475,67549.24124250001,67549,2251.633333333333,2252.22334225,67566.7002675,67566,2252.2,2254.25467275,67627.64018249999,67627,2254.233333333333,2.515757035493152,2,1,2,1,2.0,3.0,b'SB_43_ShortA.png',2256.770429785493,67703.11289356479,67703,2256.766666666667
28,2256.7785464999997,67703.356395,67703,2256.766666666667,2257.40065375,67722.0196125,67722,2257.4,2259.4317512499997,67782.9525375,67782,2259.4,1.1116306829062523,3,2,2,1,1.0,3.0,b'HB_33_LongA.png',2260.543381932906,67816.30145798718,67816,2260.5333333333333
29,2260.55109925,67816.5329775,67816,2260.5333333333333,2261.2133194999997,67836.39958499999,67836,2261.2,2263.24463475,67897.3390425,67897,2263.233333333333,1.8347754922579043,1,1,3,1,2.0,2.0,b'NB_12_ShortA.png',2265.079410242258,67952.38230726773,67952,2265.0666666666666
30,2265.094726,67952.84177999999,67952,2265.0666666666666,2265.73703825,67972.11114749999,67972,2265.733333333333,2267.7681857499997,68033.04557249999,68033,2267.766666666667,1.7283188545698067,2,2,7,2,2.0,3.0,b'SB_40_ShortA.png',2269.4965046045695,68084.89513813709,68084,2269.4666666666667
31,2269.50728225,68085.2184675,68085,2269.5,2270.0689147499997,68102.06744249999,68102,2270.0666666666666,2272.09998275,68162.9994825,68162,2272.0666666666666,5.290282711619511,3,2,7,2,2.0,3.0,b'HB_6_LongA.png',2277.3902654616195,68321.70796384859,68321,2277.366666666667
32,2277.4121232499997,68322.3636975,68322,2277.4,2277.9738657499997,68339.2159725,68339,2277.9666666666667,2280.00507575,68400.1522725,68400,2280.0,3.305365308027831,3,1,3,1,2.0,2.0,b'HB_53_ShortA.png',2283.3104410580277,68499.31323174083,68499,2283.3
33,2283.32789375,68499.8368125,68499,2283.3,2283.869842,68516.09526,68516,2283.866666666667,2285.90114575,68577.0343725,68577,2285.9,0.0,3,1,1,1,2.0,0.0,b'HB_41_ShortA.png',2285.90114575,68577.0343725,68577,2285.9
34,2287.1088245,68613.264735,68613,2287.1,2287.75084475,68632.5253425,68632,2287.733333333333,2289.7822775,68693.468325,68693,2289.766666666667,1.0044429304107325,2,2,7,2,2.0,3.0,b'SB_36_LongA.png',2290.7867204304107,68723.60161291232,68723,2290.766666666667
35,2290.8067105,68724.201315,68724,2290.8,2291.408717,68742.26151,68742,2291.4,2293.44003075,68803.2009225,68803,2293.4333333333334,0.7468629096692894,2,2,7,2,2.0,3.0,b'SB_4_shortA.png',2294.1868936596693,68825.60680979007,68825,2294.1666666666665
36,2294.209011,68826.27033,68826,2294.2,2294.79095725,68843.7287175,68843,2294.766666666667,2296.82222425,68904.6667275,68904,2296.8,3.723673752276227,3,1,2,1,2.0,3.0,b'HB_52_LongA.png',2300.5458980022763,69016.3769400683,69016,2300.5333333333333
37,2300.562954,69016.88862,69016,2300.5333333333333,2301.1649545,69034.94863500001,69034,2301.133333333333,2303.19628875,69095.8886625,69095,2303.1666666666665,-0.20432749982865062,2,2,7,2,2.0,3.0,b'SB_53_LongA.png',2302.9919612501712,69089.75883750514,69089,2302.9666666666667
38,2303.00189475,69090.0568425,69090,2303.0,2303.6041025,69108.123075,69108,2303.6,2305.635409,69169.06227,69169,2305.633333333333,1.7591033909848193,1,1,3,1,2.0,2.0,b'NB_10_LongA.png',2307.394512390985,69221.83537172954,69221,2307.366666666667
39,2307.401875,69222.05625,69222,2307.4,2308.0440355,69241.321065,69241,2308.0333333333333,2310.07534325,69302.2602975,69302,2310.0666666666666,3.110671940128668,1,2,6,2,2.0,2.0,b'NB_18_ShortA.png',2313.1860151901287,69395.58045570386,69395,2313.1666666666665
40,2313.19311625,69395.7934875,69395,2313.1666666666665,2313.75498425,69412.64952749999,69412,2313.733333333333,2315.78625875,69473.5877625,69473,2315.766666666667,0.6537093803490279,2,2,7,2,2.0,3.0,b'SB_24_LongA.png',2316.439968130349,69493.19904391047,69493,2316.4333333333334
41,2316.445722,69493.37166,69493,2316.4333333333334,2317.007436,69510.22308,69510,2317.0,2319.03840575,69571.1521725,69571,2319.0333333333333,2.038630167633528,1,1,3,1,2.0,2.0,b'NB_26_LongA.png',2321.0770359176336,69632.31107752901,69632,2321.0666666666666
42,2321.0929257499997,69632.78777249999,69632,2321.0666666666666,2321.69499275,69650.8497825,69650,2321.6666666666665,2323.7263064999997,69711.78919499999,69711,2323.7,2.9294796969625168,1,1,3,1,2.0,2.0,b'NB_4_LongA.png',2326.6557861969623,69799.67358590887,69799,2326.633333333333
43,2326.67489825,69800.2469475,69800,2326.6666666666665,2327.2368185,69817.104555,69817,2327.233333333333,2329.2678257499997,69878.03477249999,69878,2329.266666666667,2.8949266290437663,3,1,7,2,1.0,3.0,b'HB_26_ShortA.png',2332.1627523790435,69964.8825713713,69964,2332.133333333333
44,2332.1849899999997,69965.54969999999,69965,2332.1666666666665,2332.7869915,69983.60974500001,69983,2332.766666666667,2334.8182994999997,70044.54898499999,70044,2334.8,1.8379545882780803,3,2,7,2,2.0,3.0,b'HB_18_ShortA.png',2336.656254088278,70099.68762264833,70099,2336.633333333333
45,2336.680719,70100.42157,70100,2336.6666666666665,2337.262464,70117.87392,70117,2337.233333333333,2339.29387775,70178.81633249999,70178,2339.266666666667,0.9282394987239968,2,2,7,2,2.0,3.0,b'SB_15_ShortA.png',2340.222117248724,70206.66351746171,70206,2340.2
46,2340.2451185,70207.353555,70207,2340.233333333333,2340.847035,70225.41105,70225,2340.8333333333335,2342.878444,70286.35332,70286,2342.866666666667,1.8132675194938201,1,2,6,2,2.0,2.0,b'NB_2_ShortA.png',2344.6917115194938,70340.75134558481,70340,2344.6666666666665
47,2344.6993469999998,70340.98040999999,70340,2344.6666666666665,2345.261228,70357.83683999999,70357,2345.233333333333,2347.2923975,70418.771925,70418,2347.266666666667,1.6600051538989646,2,2,7,2,2.0,3.0,b'SB_5_ShortA.png',2348.952402653899,70468.57207961696,70468,2348.9333333333334
48,2348.96900825,70469.0702475,70469,2348.9666666666667,2349.63113075,70488.9339225,70488,2349.6,2351.6624337499998,70549.8730125,70549,2351.633333333333,1.888121499097906,3,1,2,1,2.0,3.0,b'HB_30_ShortA.png',2353.5505552490977,70606.51665747294,70606,2353.5333333333333
49,2353.56306175,70606.8918525,70606,2353.5333333333333,2354.14505475,70624.3516425,70624,2354.133333333333,2356.176341,70685.29023,70685,2356.1666666666665,-0.5784459099959349,3,2,2,1,1.0,3.0,b'HB_45_LongA.png',2355.597895090004,70667.93685270012,70667,2355.5666666666666
50,2355.6082555,70668.24766499999,70668,2355.6,2356.2303349999997,70686.91004999999,70686,2356.2,2358.26167475,70747.8502425,70747,2358.233333333333,2.310315818845993,3,2,7,2,2.0,3.0,b'HB_46_ShortA.png',2360.571990568846,70817.15971706538,70817,2360.5666666666666
51,2360.57786475,70817.33594250001,70817,2360.5666666666666,2361.13997225,70834.1991675,70834,2361.133333333333,2363.17128875,70895.13866249999,70895,2363.1666666666665,3.366963199150632,3,1,7,2,1.0,3.0,b'HB_38_LongA.png',2366.5382519491504,70996.1475584745,70996,2366.5333333333333
52,2366.5560875,70996.682625,70996,2366.5333333333333,2367.17837,71015.3511,71015,2367.1666666666665,2369.20966225,71076.28986749999,71076,2369.2,0.8363474184880033,1,2,6,2,2.0,2.0,b'NB_27_ShortA.png',2370.046009668488,71101.38029005463,71101,2370.0333333333333
53,2370.0685989999997,71102.05797,71102,2370.0666666666666,2370.69068775,71120.7206325,71120,2370.6666666666665,2372.7221692499998,71181.66507749999,71181,2372.7,2.4260753675334854,2,1,2,1,2.0,3.0,b'SB_22_LongA.png',2375.1482446175332,71254.44733852599,71254,2375.133333333333
54,2375.1613485,71254.840455,71254,2375.133333333333,2375.74322125,71272.2966375,71272,2375.733333333333,2377.7746887499998,71333.2406625,71333,2377.766666666667,0.5194972695899196,1,1,3,1,2.0,2.0,b'NB_28_ShortA.png',2378.2941860195897,71348.8255805877,71348,2378.266666666667
55,2378.31780625,71349.5341875,71349,2378.3,2378.91953875,71367.5861625,71367,2378.9,2380.9513065,71428.539195,71428,2380.9333333333334,3.300166209737654,1,1,3,1,2.0,2.0,b'NB_23_LongA.png',2384.2514727097378,71527.54418129213,71527,2384.233333333333
56,2384.259799,71527.79397,71527,2384.233333333333,2384.8819475,71546.458425,71546,2384.866666666667,2386.91271225,71607.3813675,71607,2386.9,1.4172479350527283,1,2,6,2,2.0,2.0,b'NB_15_ShortA.png',2388.3299601850526,71649.89880555158,71649,2388.3
57,2388.35226,71650.5678,71650,2388.3333333333335,2389.01445375,71670.4336125,71670,2389.0,2391.0457107499997,71731.3713225,71731,2391.0333333333333,2.157082214296679,2,2,7,2,2.0,3.0,b'SB_55_LongA.png',2393.2027929642963,71796.0837889289,71796,2393.2
58,2393.209585,71796.28755000001,71796,2393.2,2393.7712465,71813.137395,71813,2393.766666666667,2395.8027895,71874.083685,71874,2395.8,2.4659763582167216,1,1,3,1,2.0,2.0,b'NB_5_ShortA.png',2398.2687658582167,71948.0629757465,71948,2398.266666666667
59,2398.27391375,71948.21741249999,71948,2398.266666666667,2398.91624625,71967.48738749999,71967,2398.9,2400.9478867499997,72028.43660249999,72028,2400.9333333333334,0.0,2,1,1,1,2.0,0.0,b'SB_49_ShortA.png',2400.9478867499997,72028.43660249999,72028,2400.9333333333334
60,2404.0368485,72121.105455,72121,2404.0333333333333,2404.59862775,72137.95883250001,72137,2404.5666666666666,2406.63006975,72198.90209250001,72198,2406.6,1.8944104996771784,1,2,6,2,2.0,2.0,b'NB_24_LongA.png',2408.5244802496773,72255.73440749032,72255,2408.5
61,2408.5302699999997,72255.90809999999,72255,2408.5,2409.1927582499998,72275.7827475,72275,2409.1666666666665,2411.2239167499997,72336.71750249999,72336,2411.2,1.2916162845358485,1,2,6,2,2.0,2.0,b'NB_18_LongA.png',2412.5155330345356,72375.46599103606,72375,2412.5
62,2412.536338,72376.09014,72376,2412.5333333333333,2413.158415,72394.75245,72394,2413.133333333333,2415.1897517499997,72455.6925525,72455,2415.1666666666665,2.438675549943582,1,2,6,2,2.0,2.0,b'NB_14_ShortA.png',2417.6284272999433,72528.8528189983,72528,2417.6
63,2417.65341425,72529.6024275,72529,2417.633333333333,2418.2553264999997,72547.65979499999,72547,2418.233333333333,2420.2865895,72608.597685,72608,2420.266666666667,0.920273422205355,1,2,6,2,2.0,2.0,b'NB_11_LongA.png',2421.2068629222053,72636.20588766616,72636,2421.2
64,2421.212095,72636.36284999999,72636,2421.2,2421.83423825,72655.0271475,72655,2421.8333333333335,2423.8657375,72715.972125,72715,2423.8333333333335,2.9601812237669947,3,1,7,2,1.0,3.0,b'HB_54_LongA.png',2426.825918723767,72804.77756171301,72804,2426.8
65,2426.8480167499997,72805.44050249999,72805,2426.8333333333335,2427.51025325,72825.3075975,72825,2427.5,2429.54122375,72886.2367125,72886,2429.5333333333333,2.048815844638739,3,2,7,2,2.0,3.0,b'HB_8_ShortA.png',2431.5900395946387,72947.70118783916,72947,2431.5666666666666
66,2431.60390475,72948.11714249999,72948,2431.6,2432.16591225,72964.9773675,72964,2432.133333333333,2434.1971907499997,73025.9157225,73025,2434.1666666666665,1.8914147343311924,2,2,7,2,2.0,3.0,b'SB_6_LongA.png',2436.088605484331,73082.65816452993,73082,2436.0666666666666
67,2436.0978955,73082.936865,73082,2436.0666666666666,2436.69992925,73100.9978775,73100,2436.6666666666665,2438.73128625,73161.9385875,73161,2438.7,4.183387137862155,3,2,2,1,1.0,3.0,b'HB_24_LongA.png',2442.914673387862,73287.44020163587,73287,2442.9
68,2442.93331775,73287.99953249999,73287,2442.9,2443.53532425,73306.0597275,73306,2443.5333333333333,2445.56667025,73367.00010749999,73367,2445.5666666666666,3.3157252484816127,2,2,7,2,2.0,3.0,b'SB_8_ShortA.png',2448.8823954984814,73466.47186495444,73466,2448.866666666667
69,2448.90674,73467.2022,73467,2448.9,2449.568913,73487.06739,73487,2449.5666666666666,2451.6002814999997,73548.00844499998,73548,2451.6,2.974488291409216,1,2,6,2,2.0,2.0,b'NB_6_LongA.png',2454.574769791409,73637.24309374226,73637,2454.5666666666666
70,2454.5956065,73637.868195,73637,2454.5666666666666,2455.1974462499998,73655.92338749999,73655,2455.1666666666665,2457.2289255,73716.867765,73716,2457.2,3.3918354846100556,1,1,4,1,2.0,1.0,b'NB_19_LongA.png',2460.62076098461,73818.6228295383,73818,2460.6
71,2460.6333205,73818.99961500001,73818,2460.6,2461.2553052499998,73837.65915749999,73837,2461.233333333333,2463.2863537499998,73898.59061249999,73898,2463.266666666667,1.5551772071776213,2,1,2,1,2.0,3.0,b'SB_46_LongA.png',2464.8415309571774,73945.24592871532,73945,2464.8333333333335
72,2464.8512082499997,73945.53624749999,73945,2464.8333333333335,2465.45332625,73963.5997875,73963,2465.4333333333334,2467.48452425,74024.5357275,74024,2467.4666666666667,1.9503149141382892,3,1,7,2,1.0,3.0,b'HB_22_ShortA.png',2469.4348391641383,74083.04517492415,74083,2469.4333333333334
73,2469.459307,74083.77921000001,74083,2469.4333333333334,2470.0412615,74101.237845,74101,2470.0333333333333,2472.072523,74162.17568999999,74162,2472.0666666666666,4.023418813521857,1,2,6,2,2.0,2.0,b'NB_1_LongA.png',2476.0959418135217,74282.87825440564,74282,2476.0666666666666
74,2476.10985175,74283.2955525,74283,2476.1,2476.7519979999997,74302.55993999999,74302,2476.733333333333,2478.783152,74363.49455999999,74363,2478.766666666667,1.397232102608541,2,2,5,2,2.0,1.0,b'SB_48_LongA.png',2480.1803841026085,74405.41152307825,74405,2480.1666666666665
75,2480.19726375,74405.9179125,74405,2480.1666666666665,2480.81930475,74424.57914249999,74424,2480.8,2482.850715,74485.52145,74485,2482.8333333333335,3.496987017817446,3,2,3,1,1.0,2.0,b'HB_40_ShortA.png',2486.3477020178175,74590.43106053452,74590,2486.3333333333335
76,2486.3646584999997,74590.93975499998,74590,2486.3333333333335,2486.9466829999997,74608.40048999999,74608,2486.9333333333334,2488.9779865,74669.339595,74669,2488.9666666666667,0.7869826945679961,3,1,2,1,2.0,3.0,b'HB_57_LongA.png',2489.764969194568,74692.94907583704,74692,2489.733333333333
77,2489.7748165,74693.24449499999,74693,2489.766666666667,2490.41696425,74712.5089275,74712,2490.4,2492.44812025,74773.4436075,74773,2492.4333333333334,3.0117047574021854,2,1,2,1,2.0,3.0,b'SB_28_LongA.png',2495.4598250074023,74863.79475022206,74863,2495.4333333333334
78,2495.47308575,74864.1925725,74864,2495.4666666666667,2496.1550935,74884.652805,74884,2496.133333333333,2498.1866339999997,74945.59902,74945,2498.1666666666665,2.291805690896581,2,1,2,1,2.0,3.0,b'SB_12_ShortA.png',2500.4784396908963,75014.35319072689,75014,2500.4666666666667
79,2500.49421275,75014.8263825,75014,2500.4666666666667,2501.05610975,75031.68329249999,75031,2501.0333333333333,2503.08741525,75092.6224575,75092,2503.0666666666666,2.023113093469874,2,1,2,1,2.0,3.0,b'SB_56_ShortA.png',2505.11052834347,75153.31585030409,75153,2505.1
80,2505.12934425,75153.8803275,75153,2505.1,2505.7514185,75172.54255499999,75172,2505.733333333333,2507.7827282499998,75233.48184749999,75233,2507.766666666667,1.1622412324213656,2,2,7,2,2.0,3.0,b'SB_39_LongA.png',2508.944969482421,75268.34908447263,75268,2508.9333333333334
81,2508.9580204999997,75268.74061499999,75268,2508.9333333333334,2509.5399485,75286.19845499999,75286,2509.5333333333333,2511.5712424999997,75347.13727499999,75347,2511.5666666666666,2.2610451664950233,3,2,2,1,1.0,3.0,b'HB_29_ShortA.png',2513.8322876664947,75414.96862999484,75414,2513.8
82,2513.8452844999997,75415.35853499999,75415,2513.8333333333335,2514.4272615,75432.817845,75432,2514.4,2516.45835,75493.7505,75493,2516.4333333333334,2.993448615918169,3,1,2,1,2.0,3.0,b'HB_7_LongA.png',2519.451798615918,75583.55395847754,75583,2519.4333333333334
83,2519.4664445,75583.99333499999,75583,2519.4333333333334,2520.068395,75602.05184999999,75602,2520.0666666666666,2522.10007775,75663.0023325,75663,2522.1,2.689684104989283,1,1,6,2,1.0,2.0,b'NB_24_ShortA.png',2524.789761854989,75743.69285564967,75743,2524.766666666667
84,2524.801242,75744.03726,75744,2524.8,2525.3831904999997,75761.495715,75761,2525.366666666667,2527.4144745,75822.434235,75822,2527.4,3.657991517087794,3,2,2,1,1.0,3.0,b'HB_49_LongA.png',2531.0724660170877,75932.17398051263,75932,2531.0666666666666
85,2531.0934064999997,75932.802195,75932,2531.0666666666666,2531.6954275,75950.86282499999,75950,2531.6666666666665,2533.726711,76011.80132999999,76011,2533.7,1.5974655357858865,2,1,2,1,2.0,3.0,b'SB_23_ShortA.png',2535.3241765357857,76059.72529607356,76059,2535.3
86,2535.34568275,76060.3704825,76060,2535.3333333333335,2535.96776375,76079.0329125,76079,2535.9666666666667,2537.99844975,76139.9534925,76139,2537.9666666666667,0.5371101650816854,2,2,7,2,2.0,3.0,b'SB_54_LongA.png',2538.5355599150816,76156.06679745245,76156,2538.5333333333333
87,2538.551696,76156.55088,76156,2538.5333333333333,2539.17380075,76175.21402249999,76175,2539.1666666666665,2541.2049669999997,76236.14901,76236,2541.2,2.992191976532922,1,2,3,1,1.0,2.0,b'NB_25_LongA.png',2544.1971589765326,76325.91476929598,76325,2544.1666666666665
88,2544.2177189999998,76326.53156999999,76326,2544.2,2544.8198515,76344.595545,76344,2544.8,2546.8510752499997,76405.53225749999,76405,2546.8333333333335,2.820621267441311,1,1,3,1,2.0,2.0,b'NB_20_LongA.png',2549.671696517441,76490.15089552323,76490,2549.6666666666665
89,2549.6901935,76490.705805,76490,2549.6666666666665,2550.3524414999997,76510.57324499999,76510,2550.3333333333335,2552.38369975,76571.5109925,76571,2552.366666666667,2.6151173982507316,3,1,2,1,2.0,3.0,b'HB_10_LongA.png',2554.9988171482505,76649.96451444752,76649,2554.9666666666667
90,2555.0077322499997,76650.23196749999,76650,2555.0,2555.58956175,76667.6868525,76667,2555.5666666666666,2557.6210257499997,76728.6307725,76728,2557.6,1.5395280067896238,2,2,7,2,2.0,3.0,b'SB_7_LongA.png',2559.1605537567893,76774.81661270368,76774,2559.133333333333
91,2559.17606675,76775.2820025,76775,2559.1666666666665,2559.75801025,76792.7403075,76792,2559.733333333333,2561.7893237499998,76853.67971249999,76853,2561.766666666667,2.1056541479047155,2,2,7,2,2.0,3.0,b'SB_31_LongA.png',2563.8949778979045,76916.84933693713,76916,2563.866666666667
92,2563.916327,76917.48981,76917,2563.9,2564.5785404999997,76937.35621499999,76937,2564.5666666666666,2566.6094485,76998.283455,76998,2566.6,0.0,3,1,1,1,2.0,0.0,b'HB_25_ShortA.png',2566.6094485,76998.283455,76998,2566.6
93,2569.70562825,77091.1688475,77091,2569.7,2570.32789225,77109.83676749999,77109,2570.3,2572.35921125,77170.7763375,77170,2572.3333333333335,0.7270737019425724,1,1,3,1,2.0,2.0,b'NB_19_ShortA.png',2573.0862849519426,77192.58854855828,77192,2573.0666666666666
94,2573.1089697499997,77193.26909249999,77193,2573.1,2573.670744,77210.12232,77210,2573.6666666666665,2575.7022752499997,77271.0682575,77271,2575.7,4.47526338530588,3,1,6,2,1.0,2.0,b'HB_19_LongA.png',2580.1775386353056,77405.32615905917,77405,2580.1666666666665
95,2580.19164775,77405.7494325,77405,2580.1666666666665,2580.7936365,77423.809095,77423,2580.766666666667,2582.82500425,77484.7501275,77484,2582.8,1.7675968077819562,1,1,4,1,2.0,1.0,b'NB_5_LongA.png',2584.592601057782,77537.77803173345,77537,2584.5666666666666
96,2584.602536,77538.07608,77538,2584.6,2585.2046057499997,77556.1381725,77556,2585.2,2587.2359025,77617.07707500001,77617,2587.233333333333,2.390460142210941,1,2,7,2,2.0,3.0,b'NB_29_ShortA.png',2589.626362642211,77688.79087926634,77688,2589.6
97,2589.64312825,77689.2938475,77689,2589.633333333333,2590.285309,77708.55927,77708,2590.266666666667,2592.31660575,77769.4981725,77769,2592.3,4.1505139984801644,2,2,7,2,2.0,3.0,b'SB_16_ShortA.png',2596.46711974848,77894.0135924544,77894,2596.4666666666667
98,2596.4800885,77894.402655,77894,2596.4666666666667,2597.1222869999997,77913.66861,77913,2597.1,2599.153593,77974.60779,77974,2599.133333333333,0.0,3,1,1,1,2.0,0.0,b'HB_16_LongA.png',2599.153593,77974.60779,77974,2599.133333333333
99,2603.62684725,78108.8054175,78108,2603.6,2604.18894475,78125.6683425,78125,2604.1666666666665,2606.2201097499997,78186.60329249999,78186,2606.2,1.175487915184931,2,2,7,2,2.0,3.0,b'SB_30_ShortA.png',2607.3955976651846,78221.86792995554,78221,2607.366666666667
100,2607.4138215,78222.414645,78222,2607.4,2608.0560394999998,78241.681185,78241,2608.0333333333333,2610.0871604999998,78302.614815,78302,2610.0666666666666,0.5700069197046105,1,2,2,1,1.0,3.0,b'NB_14_LongA.png',2610.6571674197044,78319.71502259113,78319,2610.633333333333
101,2610.67390625,78320.2171875,78320,2610.6666666666665,2611.2961877499997,78338.8856325,78338,2611.266666666667,2613.3274025,78399.822075,78399,2613.3,1.2046601282781921,2,1,2,1,2.0,3.0,b'SB_38_LongA.png',2614.5320626282783,78435.96187884835,78435,2614.5
102,2614.55586025,78436.6758075,78436,2614.5333333333333,2615.19817075,78455.9451225,78455,2615.1666666666665,2617.2295707499998,78516.88712249999,78516,2617.2,2.1508218063390814,2,2,7,2,2.0,3.0,b'SB_27_LongA.png',2619.380392556339,78581.41177669016,78581,2619.366666666667
103,2619.3921995,78581.765985,78581,2619.366666666667,2620.01430075,78600.4290225,78600,2620.0,2622.045587,78661.36761,78661,2622.0333333333333,1.6955724463477964,3,2,7,2,2.0,3.0,b'HB_48_ShortA.png',2623.741159446348,78712.23478339044,78712,2623.733333333333
104,2623.75241,78712.5723,78712,2623.733333333333,2624.354466,78730.63398,78730,2624.3333333333335,2626.3857479999997,78791.57243999999,78791,2626.366666666667,1.6415649206901435,1,1,2,1,2.0,3.0,b'NB_7_ShortA.png',2628.02731292069,78840.8193876207,78840,2628.0
105,2628.04547825,78841.3643475,78841,2628.0333333333333,2628.6475225,78859.42567499999,78859,2628.633333333333,2630.6790685,78920.372055,78920,2630.6666666666665,0.2513475564774126,1,1,2,1,2.0,3.0,b'NB_12_LongA.png',2630.9304160564775,78927.91248169432,78927,2630.9
106,2630.94090725,78928.2272175,78928,2630.9333333333334,2631.5427582499997,78946.2827475,78946,2631.5333333333333,2633.57416575,79007.2249725,79007,2633.5666666666666,2.034843081404688,2,2,7,2,2.0,3.0,b'SB_41_LongA.png',2635.6090088314045,79068.27026494214,79068,2635.6
107,2635.61886875,79068.5660625,79068,2635.6,2636.2609937499997,79087.82981249999,79087,2636.233333333333,2638.29231175,79148.76935249999,79148,2638.266666666667,2.914485464221798,3,1,2,1,2.0,3.0,b'HB_21_ShortA.png',2641.2067972142218,79236.20391642665,79236,2641.2
108,2641.2230255,79236.69076499999,79236,2641.2,2641.784783,79253.54349,79253,2641.766666666667,2643.81626725,79314.4880175,79314,2643.8,1.8351536736590788,2,1,2,1,2.0,3.0,b'SB_57_ShortA.png',2645.651420923659,79369.54262770977,79369,2645.633333333333
109,2645.6742759999997,79370.22828,79370,2645.6666666666665,2646.2361714999997,79387.08514499999,79387,2646.233333333333,2648.2668925,79448.00677499999,79448,2648.266666666667,4.920270207163412,3,1,6,2,1.0,2.0,b'HB_2_ShortA.png',2653.187162707163,79595.61488121489,79595,2653.1666666666665
110,2653.2004245,79596.012735,79596,2653.2,2653.86265625,79615.8796875,79615,2653.8333333333335,2655.8937419999997,79676.81225999999,79676,2655.866666666667,1.9781610494537745,2,1,2,1,2.0,3.0,b'SB_35_ShortA.png',2657.8719030494535,79736.1570914836,79736,2657.866666666667
111,2657.889385,79736.68155,79736,2657.866666666667,2658.49120625,79754.73618749999,79754,2658.4666666666667,2660.5223982499997,79815.67194749998,79815,2660.5,2.8111404516967013,3,2,2,1,1.0,3.0,b'HB_34_LongA.png',2663.3335387016964,79900.00616105089,79900,2663.3333333333335
112,2663.35296625,79900.5889875,79900,2663.3333333333335,2663.9751265,79919.253795,79919,2663.9666666666667,2666.0064429999998,79980.19329,79980,2666.0,2.6041314919420984,3,1,4,1,2.0,1.0,b'HB_15_LongA.png',2668.610574491942,80058.31723475826,80058,2668.6
113,2668.62317175,80058.6951525,80058,2668.6,2669.1848875,80075.546625,80075,2669.1666666666665,2671.2161215,80136.483645,80136,2671.2,4.72392648148525,3,2,7,2,2.0,3.0,b'HB_37_ShortA.png',2675.9400479814853,80278.20143944456,80278,2675.9333333333334
114,2675.96066025,80278.8198075,80278,2675.9333333333334,2676.6429292499997,80299.2878775,80299,2676.633333333333,2678.67374425,80360.21232749999,80360,2678.6666666666665,1.5963224363076733,1,1,7,2,1.0,3.0,b'NB_23_ShortA.png',2680.2700666863075,80408.10200058922,80408,2680.266666666667
115,2680.28761475,80408.6284425,80408,2680.266666666667,2680.9098265,80427.294795,80427,2680.9,2682.9411405,80488.234215,80488,2682.9333333333334,-1.1725907567160903,2,1,2,1,2.0,3.0,b'SB_1_ShortA.png',2681.768549743284,80453.05649229852,80453,2681.766666666667
116,2681.7867954999997,80453.603865,80453,2681.766666666667,2682.34871325,80470.4613975,80470,2682.3333333333335,2684.380012,80531.40036,80531,2684.366666666667,3.9189926876715617,3,1,7,2,1.0,3.0,b'HB_50_ShortA.png',2688.2990046876716,80648.97014063015,80648,2688.266666666667
117,2688.3071622499997,80649.21486749999,80649,2688.3,2688.9092082499997,80667.27624749999,80667,2688.9,2690.9406145,80728.21843499999,80728,2690.9333333333334,2.167739317534142,1,1,2,1,2.0,3.0,b'NB_11_ShortA.png',2693.108353817534,80793.25061452601,80793,2693.1
118,2693.1181874999997,80793.545625,80793,2693.1,2693.78055775,80813.4167325,80813,2693.766666666667,2695.8116704999998,80874.350115,80874,2695.8,3.7403009571135044,2,1,2,1,2.0,3.0,b'SB_44_ShortA.png',2699.5519714571133,80986.5591437134,80986,2699.5333333333333
119,2699.5764615,80987.293845,80987,2699.5666666666666,2700.1383135,81004.149405,81004,2700.133333333333,2702.1696024999997,81065.08807499999,81065,2702.1666666666665,1.552033072526683,3,2,4,1,1.0,1.0,b'HB_55_ShortA.png',2703.7216355725263,81111.6490671758,81111,2703.7
120,2703.743133,81112.29399,81112,2703.733333333333,2704.36524325,81130.95729749999,81130,2704.3333333333335,2706.3965184999997,81191.895555,81191,2706.366666666667,2.5618031803896884,3,1,7,2,1.0,3.0,b'HB_51_LongA.png',2708.9583216803894,81268.74965041169,81268,2708.9333333333334
121,2708.98259525,81269.4778575,81269,2708.9666666666667,2709.584614,81287.53842,81287,2709.5666666666666,2711.615922,81348.47766,81348,2711.6,2.293705984513508,1,1,2,1,2.0,3.0,b'NB_30_LongA.png',2713.9096279845135,81417.28883953541,81417,2713.9
122,2713.93171,81417.9513,81417,2713.9,2714.57387225,81437.2161675,81437,2714.5666666666666,2716.60545475,81498.16364249999,81498,2716.6,2.6984777484467486,1,2,7,2,2.0,3.0,b'NB_10_ShortA.png',2719.3039324984466,81579.11797495339,81579,2719.3
123,2719.3231324999997,81579.69397499999,81579,2719.3,2719.9853475,81599.560425,81599,2719.9666666666667,2722.016518,81660.49554,81660,2722.0,2.723723185205017,2,2,2,1,1.0,3.0,b'SB_2_ShortA.png',2724.740241185205,81742.20723555615,81742,2724.733333333333
124,2724.746339,81742.39017,81742,2724.733333333333,2725.3886654999997,81761.65996499998,81761,2725.366666666667,2727.4198457499997,81822.59537249999,81822,2727.4,0.8384653898683609,3,1,7,2,1.0,3.0,b'HB_17_LongA.png',2728.258311139868,81847.74933419604,81847,2728.233333333333
125,2728.2805319999998,81848.41596,81848,2728.266666666667,2728.86252725,81865.8758175,81865,2728.8333333333335,2730.8938252499997,81926.81475749999,81926,2730.866666666667,2.176003339482122,3,1,2,1,2.0,3.0,b'HB_60_ShortA.png',2733.069828589482,81992.09485768445,81992,2733.0666666666666
126,2733.0905009999997,81992.71502999999,81992,2733.0666666666666,2733.73274575,82011.9823725,82011,2733.7,2735.7640715,82072.92214499999,82072,2735.733333333333,3.929129045980517,3,2,7,2,2.0,3.0,b'HB_20_LongA.png',2739.6932005459803,82190.7960163794,82190,2739.6666666666665
127,2739.705408,82191.16223999999,82191,2739.7,2740.30745675,82209.22370249999,82209,2740.3,2742.338699,82270.16097,82270,2742.3333333333335,1.208612463553436,2,2,7,2,2.0,3.0,b'SB_33_LongA.png',2743.5473114635533,82306.4193439066,82306,2743.5333333333333
128,2743.5645289999998,82306.93586999999,82306,2743.5333333333333,2744.186605,82325.59814999999,82325,2744.1666666666665,2746.217877,82386.53631,82386,2746.2,0.5878475534263998,3,1,2,1,2.0,3.0,b'HB_4_ShortA.png',2746.8057245534264,82404.17173660279,82404,2746.8
129,2746.82701575,82404.8104725,82404,2746.8,2747.3889165,82421.667495,82421,2747.366666666667,2749.4202367499997,82482.6071025,82482,2749.4,3.0449138026160654,1,2,2,1,1.0,3.0,b'NB_26_ShortA.png',2752.465150552616,82573.95451657848,82573,2752.4333333333334
130,2752.4723452499998,82574.1703575,82574,2752.4666666666667,2753.0343035,82591.02910500001,82591,2753.0333333333333,2755.0654947499997,82651.96484249999,82651,2755.0333333333333,1.6508246647572378,1,1,2,1,2.0,3.0,b'NB_16_LongA.png',2756.716319414757,82701.48958244271,82701,2756.7
131,2756.73705475,82702.1116425,82702,2756.733333333333,2757.359134,82720.77402,82720,2757.3333333333335,2759.3904585,82781.713755,82781,2759.366666666667,0.8648491816420574,2,2,2,1,1.0,3.0,b'SB_32_LongA.png',2760.255307681642,82807.65923044927,82807,2760.233333333333
132,2760.26557475,82807.96724249999,82807,2760.233333333333,2760.8676135,82826.028405,82826,2760.866666666667,2762.89869375,82886.9608125,82886,2762.866666666667,0.8129565218114294,2,1,2,1,2.0,3.0,b'SB_42_ShortA.png',2763.7116502718113,82911.34950815434,82911,2763.7
133,2763.71783925,82911.5351775,82911,2763.7,2764.29980675,82928.99420249999,82928,2764.266666666667,2766.33108575,82989.9325725,82989,2766.3,4.116981410930748,3,2,7,2,2.0,3.0,b'HB_11_LongA.png',2770.448067160931,83113.44201482792,83113,2770.4333333333334
134,2770.465159,83113.95477,83113,2770.4333333333334,2771.1073994999997,83133.221985,83133,2771.1,2773.13854575,83194.1563725,83194,2773.133333333333,3.022184884204762,1,1,2,1,2.0,3.0,b'NB_21_LongA.png',2776.160730634205,83284.82191902614,83284,2776.133333333333
135,2776.1738379999997,83285.21513999999,83285,2776.1666666666665,2776.7556695,83302.67008499999,83302,2776.733333333333,2778.78728875,83363.6186625,83363,2778.766666666667,-0.6317767350119539,2,2,5,2,2.0,1.0,b'SB_29_LongA.png',2778.155512014988,83344.66536044964,83344,2778.133333333333
136,2778.178614,83345.35842,83345,2778.1666666666665,2778.7405485,83362.216455,83362,2778.733333333333,2780.77131675,83423.13950250001,83423,2780.766666666667,1.9688831249222858,3,2,7,2,2.0,3.0,b'HB_43_ShortA.png',2782.7401998749224,83482.20599624768,83482,2782.733333333333
137,2782.751637,83482.54910999999,83482,2782.733333333333,2783.35354,83500.60620000001,83500,2783.3333333333335,2785.38508425,83561.5525275,83561,2785.366666666667,3.1081177192390896,1,1,2,1,2.0,3.0,b'NB_3_LongA.png',2788.493201969239,83654.79605907717,83654,2788.4666666666667
138,2788.509451,83655.28353,83655,2788.5,2789.0913837499997,83672.7415125,83672,2789.0666666666666,2791.122826,83733.68478,83733,2791.1,1.7191408818471245,1,2,7,2,2.0,3.0,b'NB_6_ShortA.png',2792.841966881847,83785.25900645541,83785,2792.8333333333335
139,2792.86596925,83785.9790775,83785,2792.8333333333335,2793.447754,83803.43261999999,83803,2793.4333333333334,2795.4790745,83864.372235,83864,2795.4666666666667,1.4903628854517592,3,1,4,1,2.0,1.0,b'HB_9_ShortA.png',2796.969437385452,83909.08312156356,83909,2796.9666666666667
140,2796.9833692499997,83909.5010775,83909,2796.9666666666667,2797.54519125,83926.3557375,83926,2797.5333333333333,2799.5763779999997,83987.29134,83987,2799.5666666666666,1.4585189826902933,2,1,2,1,2.0,3.0,b'SB_26_ShortA.png',2801.03489698269,84031.0469094807,84031,2801.0333333333333
141,2801.0515445,84031.546335,84031,2801.0333333333333,2801.6938805,84050.816415,84050,2801.6666666666665,2803.725177,84111.75531,84111,2803.7,3.5640404316218337,2,1,2,1,2.0,3.0,b'SB_25_ShortA.png',2807.2892174316216,84218.67652294865,84218,2807.266666666667
142,2807.300921,84219.02763,84219,2807.3,2807.9031084999997,84237.09325499999,84237,2807.9,2809.9340835,84298.022505,84298,2809.9333333333334,-0.4627890421397751,2,1,7,2,1.0,3.0,b'SB_10_ShortA.png',2809.47129445786,84284.13883373581,84284,2809.4666666666667
143,2809.48055325,84284.41659749999,84284,2809.4666666666667,2810.1026475,84303.079425,84303,2810.1,2812.133961,84364.01883,84364,2812.133333333333,1.4338396725070197,3,2,2,1,1.0,3.0,b'HB_3_ShortA.png',2813.567800672507,84407.03402017521,84407,2813.5666666666666
144,2813.58712075,84407.6136225,84407,2813.5666666666666,2814.2293017499996,84426.8790525,84426,2814.2,2816.2606094999996,84487.81828499999,84487,2816.233333333333,-0.7280617167707533,2,2,2,1,1.0,3.0,b'SB_37_ShortA.png',2815.532547783229,84465.97643349686,84465,2815.5
145,2815.54525475,84466.35764249999,84466,2815.5333333333333,2816.1271552499998,84483.8146575,84483,2816.1,2818.15828225,84544.7484675,84544,2818.133333333333,-0.6981491651531542,3,2,7,2,2.0,3.0,b'HB_42_LongA.png',2817.460133084847,84523.8039925454,84523,2817.4333333333334
146,2817.4788965,84524.366895,84524,2817.4666666666667,2818.0608629999997,84541.82589,84541,2818.0333333333333,2820.09211475,84602.7634425,84602,2820.0666666666666,2.4119874561729375,3,2,4,1,1.0,1.0,b'HB_5_ShortA.png',2822.504102206173,84675.12306618519,84675,2822.5
147,2822.51989225,84675.5967675,84675,2822.5,2823.14198975,84694.2596925,84694,2823.133333333333,2825.1732859999997,84755.19858,84755,2825.1666666666665,0.7957240544492379,3,1,4,1,2.0,1.0,b'HB_14_LongA.png',2825.969010054449,84779.07030163347,84779,2825.9666666666667
148,2825.9838704999997,84779.51611499999,84779,2825.9666666666667,2826.60597075,84798.17912249999,84798,2826.6,2828.6371405,84859.114215,84859,2828.633333333333,1.7858067077031592,2,2,5,2,2.0,1.0,b'SB_9_LongA.png',2830.422947207703,84912.68841623109,84912,2830.4
149,2830.43090675,84912.9272025,84912,2830.4,2831.0529939999997,84931.58982,84931,2831.0333333333333,2833.083753,84992.51259,84992,2833.0666666666666,2.0310946783429245,1,1,5,2,1.0,1.0,b'NB_22_ShortA.png',2835.114847678343,85053.44543035029,85053,2835.1
150,2835.135661,85054.06983,85054,2835.133333333333,2835.73786425,85072.1359275,85072,2835.733333333333,2837.7688749999998,85133.06624999999,85133,2837.766666666667,2.9618200504482957,1,1,2,1,2.0,3.0,b'NB_3_ShortA.png',2840.730695050448,85221.92085151344,85221,2840.7
151,2840.749026,85222.47078,85222,2840.733333333333,2841.39137025,85241.7411075,85241,2841.366666666667,2843.42266375,85302.6799125,85302,2843.4,-0.009697256376966834,3,2,5,2,2.0,1.0,b'HB_39_LongA.png',2843.412966493623,85302.38899480869,85302,2843.4
152,2843.4361732499997,85303.0851975,85303,2843.4333333333334,2844.0582987499997,85321.74896249999,85321,2844.0333333333333,2846.08900625,85382.6701875,85382,2846.0666666666666,2.5483763490774436,3,1,7,2,1.0,3.0,b'HB_27_ShortA.png',2848.6373825990772,85459.12147797232,85459,2848.633333333333
153,2848.65848875,85459.7546625,85459,2848.633333333333,2849.2404535,85477.213605,85477,2849.233333333333,2851.271461,85538.14383,85538,2851.266666666667,1.825010093540186,1,1,2,1,2.0,3.0,b'NB_15_LongA.png',2853.09647109354,85592.8941328062,85592,2853.0666666666666
154,2853.1088864999997,85593.266595,85593,2853.1,2853.71095375,85611.3286125,85611,2853.7,2855.7421744999997,85672.26523499998,85672,2855.733333333333,1.0550537984381663,1,1,2,1,2.0,3.0,b'NB_2_LongA.png',2856.797228298438,85703.91684895313,85703,2856.766666666667
155,2856.8094295,85704.28288500001,85704,2856.8,2857.43158275,85722.94748249999,85722,2857.4,2859.4627794999997,85783.883385,85783,2859.4333333333334,1.6583297601464437,3,2,7,2,2.0,3.0,b'HB_35_ShortA.png',2861.121109260146,85833.63327780439,85833,2861.1
156,2861.1286812499998,85833.8604375,85833,2861.1,2861.79093975,85853.7281925,85853,2861.766666666667,2863.82211925,85914.6635775,85914,2863.8,-0.14819517428986728,2,1,2,1,2.0,3.0,b'SB_18_LongA.png',2863.67392407571,85910.2177222713,85910,2863.6666666666665
157,2863.69661,85910.8983,85910,2863.6666666666665,2864.2785595,85928.356785,85928,2864.266666666667,2866.3095974999997,85989.28792499998,85989,2866.3,1.309544247778831,1,2,7,2,2.0,3.0,b'NB_25_ShortA.png',2867.6191417477785,86028.57425243335,86028,2867.6
158,2867.6396354999997,86029.18906499998,86029,2867.633333333333,2868.2816587499997,86048.4497625,86048,2868.266666666667,2870.31309075,86109.3927225,86109,2870.3,1.9459343444177648,3,2,2,1,1.0,3.0,b'HB_1_LongA.png',2872.2590250944177,86167.77075283253,86167,2872.233333333333
159,2872.28000025,86168.4000075,86168,2872.266666666667,2872.9019642499998,86187.0589275,86187,2872.9,2874.93393975,86248.01819249999,86248,2874.9333333333334,1.1521304950874764,1,1,5,2,1.0,1.0,b'NB_13_ShortA.png',2876.0860702450873,86282.58210735262,86282,2876.0666666666666
160,2876.10854325,86283.2562975,86283,2876.1,2876.6904662499996,86300.71398749998,86300,2876.6666666666665,2878.7219379999997,86361.65813999998,86361,2878.7,0.6386199670960195,1,1,7,2,1.0,3.0,b'NB_16_ShortA.png',2879.3605579670957,86380.81673901287,86380,2879.3333333333335
161,2879.37894225,86381.3682675,86381,2879.366666666667,2879.9810435,86399.431305,86399,2879.9666666666667,2882.0120414999997,86460.361245,86460,2882.0,1.4015011394803878,2,2,2,1,1.0,3.0,b'SB_13_ShortA.png',2883.41354263948,86502.4062791844,86502,2883.4
162,2883.42337375,86502.70121249999,86502,2883.4,2884.0856515,86522.569545,86522,2884.0666666666666,2886.11657975,86583.4973925,86583,2886.1,0.7236857672105543,2,2,2,1,1.0,3.0,b'SB_34_ShortA.png',2886.8402655172104,86605.20796551631,86605,2886.8333333333335
163,2886.8612654999997,86605.83796499998,86605,2886.8333333333335,2887.44323975,86623.2971925,86623,2887.4333333333334,2889.47454175,86684.23625249999,86684,2889.4666666666667,2.7457863290183013,3,1,2,1,2.0,3.0,b'HB_44_LongA.png',2892.220328079018,86766.60984237054,86766,2892.2
164,2892.237905,86767.13715,86767,2892.233333333333,2892.8199185,86784.597555,86784,2892.8,2894.8511467499998,86845.5344025,86845,2894.8333333333335,3.3387947442679433,1,2,2,1,1.0,3.0,b'NB_8_ShortA.png',2898.1899414942677,86945.69824482803,86945,2898.1666666666665
165,2898.213991,86946.41973000001,86946,2898.2,2898.79613225,86963.8839675,86963,2898.766666666667,2900.8274499999998,87024.8235,87024,2900.8,-0.5278257544268854,1,2,4,1,1.0,1.0,b'NB_4_ShortA.png',2900.299624245573,87008.98872736719,87008,2900.266666666667
166,2900.31552225,87009.4656675,87009,2900.3,2900.99782675,87029.9348025,87029,2900.9666666666667,2903.02923475,87090.8770425,87090,2903.0,2.807162807046552,3,1,2,1,2.0,3.0,b'HB_47_ShortA.png',2905.8363975570464,87175.0919267114,87175,2905.8333333333335
167,2905.8474337499997,87175.42301249999,87175,2905.8333333333335,2906.40934575,87192.2803725,87192,2906.4,2908.4406565,87253.21969499999,87253,2908.4333333333334,2.0210838887287537,3,1,5,2,1.0,1.0,b'HB_13_LongA.png',2910.4617403887287,87313.85221166186,87313,2910.4333333333334
168,2910.4831962499998,87314.49588749999,87314,2910.4666666666667,2911.1253355,87333.760065,87333,2911.1,2913.15660325,87394.6980975,87394,2913.133333333333,2.4515872421179665,2,1,5,2,1.0,1.0,b'SB_60_ShortA.png',2915.608190492118,87468.24571476354,87468,2915.6
169,2915.626518,87468.79554,87468,2915.6,2916.2886995,87488.660985,87488,2916.266666666667,2918.32012275,87549.60368249999,87549,2918.3,2.120095075471909,3,1,2,1,2.0,3.0,b'HB_31_ShortA.png',2920.440217825472,87613.20653476415,87613,2920.4333333333334
170,2920.46048025,87613.8144075,87613,2920.4333333333334,2921.1228849999998,87633.68655,87633,2921.1,2923.15418775,87694.6256325,87694,2923.133333333333,1.1911228418175597,2,2,2,1,1.0,3.0,b'SB_59_ShortA.png',2924.3453105918175,87730.35931775453,87730,2924.3333333333335
171,2924.3530444999997,87730.59133499999,87730,2924.3333333333335,2924.95492925,87748.6478775,87748,2924.9333333333334,2926.9863105,87809.589315,87809,2926.9666666666667,1.7946014966146322,1,1,7,2,1.0,3.0,b'NB_7_LongA.png',2928.7809119966146,87863.42735989844,87863,2928.766666666667
172,2928.78884775,87863.6654325,87863,2928.766666666667,2929.39094975,87881.7284925,87881,2929.366666666667,2931.42216775,87942.6650325,87942,2931.4,1.9989839218033012,2,2,7,2,2.0,3.0,b'SB_19_LongA.png',2933.4211516718033,88002.63455015409,88002,2933.4
173,2933.43615825,88003.0847475,88003,2933.4333333333334,2934.0983754999997,88022.951265,88022,2934.0666666666666,2936.1292047499996,88083.87614249998,88083,2936.1,2.0530625962564955,1,1,2,1,2.0,3.0,b'NB_21_ShortA.png',2938.182267346256,88145.46802038768,88145,2938.1666666666665
174,2938.20412925,88146.1238775,88146,2938.2,2938.82623625,88164.7870875,88164,2938.8,2940.857528,88225.72584,88225,2940.8333333333335,2.4352894258190645,2,2,4,1,1.0,1.0,b'SB_47_LongA.png',2943.292817425819,88298.78452277457,88298,2943.266666666667
175,2943.29950225,88298.9850675,88298,2943.266666666667,2943.961661,88318.84982999999,88318,2943.9333333333334,2945.9931665,88379.794995,88379,2945.9666666666667,2.4123335049225716,2,1,7,2,1.0,3.0,b'SB_20_LongA.png',2948.4055000049225,88452.16500014768,88452,2948.4
176,2948.4258797499997,88452.77639249999,88452,2948.4,2949.00794375,88470.23831249999,88470,2949.0,2951.03915325,88531.1745975,88531,2951.0333333333333,2.1424086764018284,1,2,2,1,1.0,3.0,b'NB_28_LongA.png',2953.1815619264016,88595.44685779205,88595,2953.1666666666665
177,2953.1878457499997,88595.6353725,88595,2953.1666666666665,2953.85021925,88615.5065775,88615,2953.8333333333335,2955.88118525,88676.4355575,88676,2955.866666666667,2.5275466345919995,2,1,4,1,2.0,1.0,b'SB_51_ShortA.png',2958.408731884592,88752.26195653775,88752,2958.4
178,2958.4244095,88752.73228499999,88752,2958.4,2959.0664377499997,88771.99313249999,88771,2959.0333333333333,2961.09763225,88832.9289675,88832,2961.0666666666666,1.3925615814659977,2,1,7,2,1.0,3.0,b'SB_52_LongA.png',2962.490193831466,88874.70581494398,88874,2962.4666666666667
179,2962.5639075,88876.917225,88876,2962.5333333333333,2963.2142372499998,88896.42711749999,88896,2963.2,2965.25228875,88957.5686625,88957,2965.233333333333,-1.7859734596277121,2,1,2,1,2.0,3.0,b'SB_30_ShortA.png',2963.466315290372,88903.98945871116,88903,2963.4333333333334
180,2963.5282657499997,88905.84797249999,88905,2963.5,2964.167948,88925.03843999999,88925,2964.1666666666665,2966.21455375,88986.4366125,88986,2966.2,2.1893822201091098,2,2,6,2,2.0,2.0,b'SB_30_LongA.png',2968.403935970109,89052.11807910327,89052,2968.4
