trial_num,fixcross_time,fixation_HZ,fixation_bin,fixation_regarded,start_time,Fstart_HZ,Fstart_bin,Fstart_regarded,stop_time,Fstop_HZ,Fstop_bin,Fstop_regarded,RT,boundary_type,key,resp_value,leftright,accuracy,confidence,frameName,response_time,response_HZ,response_bin,response_regarded
1,2074.6256412499997,62238.76923749999,62238,2074.6,2075.17551775,62255.265532499994,62255,2075.1666666666665,2077.20937475,62316.281242499994,62316,2077.2,1.1643834272399545,2,2,5,2,2.0,1.0,b'SB_6_ShortA.png',2078.37375817724,62351.21274531719,62351,2078.366666666667
2,2078.42131925,62352.639577500006,62352,2078.4,2078.9878795,62369.636385,62369,2078.9666666666667,2081.0214185,62430.642555,62430,2081.0,1.418867521744687,3,1,6,2,1.0,2.0,b'HB_26_LongA.png',2082.4402860217447,62473.20858065234,62473,2082.4333333333334
3,2082.4686269999997,62474.058809999995,62474,2082.4666666666667,2083.0851705,62492.555115,62492,2083.0666666666666,2085.11951175,62553.585352500006,62553,2085.1,0.9394176745554432,3,1,6,2,1.0,2.0,b'HB_18_ShortA.png',2086.0589294245556,62581.76788273667,62581,2086.0333333333333
4,2086.07779625,62582.333887500004,62582,2086.0666666666666,2086.6776695,62600.330084999994,62600,2086.6666666666665,2088.7126694999997,62661.38008499999,62661,2088.7,0.1206344902748242,3,1,6,2,1.0,2.0,b'HB_55_ShortA.png',2088.8333039902745,62664.999119708235,62664,2088.8
5,2088.845917,62665.377510000006,62665,2088.8333333333335,2089.39580425,62681.87412749999,62681,2089.366666666667,2091.43016375,62742.904912499995,62742,2091.4,1.2548795297625475,2,2,5,2,2.0,1.0,b'SB_19_ShortA.png',2092.6850432797623,62780.55129839287,62780,2092.6666666666665
6,2092.7020755,62781.06226499999,62781,2092.7,2093.2852945,62798.558834999996,62798,2093.266666666667,2095.31910475,62859.5731425,62859,2095.3,0.802235743147321,1,1,4,1,2.0,1.0,b'NB_7_LongA.png',2096.1213404931473,62883.64021479442,62883,2096.1
7,2096.12664425,62883.799327500004,62883,2096.1,2096.6432032499997,62899.29609749999,62899,2096.633333333333,2098.67657275,62960.297182500006,62960,2098.6666666666665,1.273975364281796,2,2,5,2,2.0,1.0,b'SB_12_ShortA.png',2099.950548114282,62998.51644342846,62998,2099.9333333333334
8,2099.96997475,62999.0992425,62999,2099.9666666666667,2100.48654325,63014.5962975,63014,2100.4666666666667,2102.5199395,63075.598184999995,63075,2102.5,1.2270228398847394,3,2,4,1,1.0,1.0,b'HB_40_LongA.png',2103.7469623398847,63112.40887019654,63112,2103.733333333333
9,2103.76220375,63112.8661125,63112,2103.733333333333,2104.312075,63129.36224999999,63129,2104.3,2106.345481,63190.364429999994,63190,2106.3333333333335,0.9219349173363298,3,1,6,2,1.0,2.0,b'HB_19_ShortA.png',2107.267415917336,63218.022477520084,63218,2107.266666666667
10,2107.28060125,63218.4180375,63218,2107.266666666667,2107.880482,63236.41446,63236,2107.866666666667,2109.91471075,63297.441322499995,63297,2109.9,1.2437378031318076,2,1,3,1,2.0,2.0,b'SB_38_ShortA.png',2111.1584485531316,63334.75345659395,63334,2111.133333333333
11,2111.16978425,63335.093527499994,63335,2111.1666666666665,2111.686339,63350.590169999996,63350,2111.6666666666665,2113.7205175,63411.615525,63411,2113.7,1.110793184430804,1,2,5,2,2.0,1.0,b'NB_28_LongA.png',2114.8313106844307,63444.939320532925,63444,2114.8
12,2114.8398095,63445.19428499999,63445,2114.8333333333335,2115.4063539999997,63462.190619999994,63462,2115.4,2117.43972525,63523.1917575,63523,2117.4333333333334,2.2513912045396864,3,1,5,2,1.0,1.0,b'HB_28_LongA.png',2119.6911164545395,63590.73349363619,63590,2119.6666666666665
13,2119.70694275,63591.2082825,63591,2119.7,2120.223497,63606.70491,63606,2120.2,2122.25821375,63667.7464125,63667,2122.233333333333,1.2833627146319486,2,2,6,2,2.0,2.0,b'SB_21_ShortA.png',2123.541576464632,63706.247293938955,63706,2123.5333333333333
14,2123.54588925,63706.376677500004,63706,2123.5333333333333,2124.0790927499997,63722.372782499995,63722,2124.0666666666666,2126.112987,63783.38961,63783,2126.1,1.320043504179921,2,1,3,1,2.0,2.0,b'SB_7_LongA.png',2127.43303050418,63822.990915125396,63822,2127.4
15,2127.45265575,63823.5796725,63823,2127.4333333333334,2127.9692145,63839.076434999995,63839,2127.9666666666667,2130.00260575,63900.0781725,63900,2130.0,1.7559332104283385,1,2,6,2,2.0,2.0,b'NB_30_LongA.png',2131.7585389604283,63952.75616881285,63952,2131.733333333333
16,2131.768794,63953.06382,63953,2131.766666666667,2132.3186655,63969.559965,63969,2132.3,2134.35314425,64030.594327499995,64030,2134.3333333333335,2.515519926440902,3,2,3,1,1.0,2.0,b'HB_35_LongA.png',2136.8686641764407,64106.05992529322,64106,2136.866666666667
17,2136.8754544999997,64106.26363499999,64106,2136.866666666667,2137.4086655,64122.259965000005,64122,2137.4,2139.4433047499997,64183.29914249999,64183,2139.4333333333334,1.1574556530686095,2,1,3,1,2.0,2.0,b'SB_28_LongA.png',2140.6007604030683,64218.02281209205,64218,2140.6
18,2140.6160725,64218.482175,64218,2140.6,2141.182626,64235.47877999999,64235,2141.1666666666665,2143.2161585,64296.484755,64296,2143.2,1.1665483862743713,2,2,7,2,2.0,3.0,b'SB_31_LongA.png',2144.3827068862743,64331.48120658823,64331,2144.366666666667
19,2144.3912095,64331.736285,64331,2144.366666666667,2144.92444325,64347.7332975,64347,2144.9,2146.9583427499997,64408.75028249999,64408,2146.9333333333334,0.7634761385852471,1,2,6,2,2.0,2.0,b'NB_17_ShortA.png',2147.721818888585,64431.65456665755,64431,2147.7
20,2147.7254319999997,64431.76295999999,64431,2147.7,2148.22533575,64446.760072499994,64446,2148.2,2150.25877425,64507.7632275,64507,2150.233333333333,1.0769111887784675,1,2,6,2,2.0,2.0,b'NB_18_ShortA.png',2151.3356854387785,64540.070563163354,64540,2151.3333333333335
21,2151.34568575,64540.3705725,64540,2151.3333333333335,2151.8288789999997,64554.86636999999,64554,2151.8,2153.8623119999997,64615.86935999999,64615,2153.8333333333335,0.5618283923249692,3,2,3,1,1.0,2.0,b'HB_27_LongA.png',2154.4241403923247,64632.72421176974,64632,2154.4
22,2154.42969125,64632.8907375,64632,2154.4,2154.9962179999998,64649.88653999999,64649,2154.9666666666667,2157.030338,64710.91014,64710,2157.0,0.7234575852635317,3,1,3,1,2.0,2.0,b'HB_13_ShortA.png',2157.7537955852636,64732.613867557906,64732,2157.733333333333
23,2157.76766525,64733.029957499995,64733,2157.766666666667,2158.31754775,64749.526432499995,64749,2158.3,2160.3516095,64810.548285,64810,2160.3333333333335,1.8494935607886873,1,1,2,1,2.0,3.0,b'NB_23_ShortA.png',2162.2011030607887,64866.03309182366,64866,2162.2
24,2162.21324,64866.3972,64866,2162.2,2162.77980075,64883.394022500004,64883,2162.766666666667,2164.81378225,64944.413467499995,64944,2164.8,1.2213512517046183,2,1,3,1,2.0,2.0,b'SB_32_LongA.png',2166.0351335017044,64981.05400505113,64981,2166.0333333333333
25,2166.039805,64981.194149999996,64981,2166.0333333333333,2166.6896792499997,65000.69037749999,65000,2166.6666666666665,2168.72320975,65061.6962925,65061,2168.7,1.5281553781824186,3,2,3,1,1.0,2.0,b'HB_33_LongA.png',2170.2513651281824,65107.54095384547,65107,2170.233333333333
26,2170.2729085,65108.187255000004,65108,2170.266666666667,2170.87278975,65126.183692499995,65126,2170.866666666667,2172.90742675,65187.2228025,65187,2172.9,1.290084529784508,2,1,2,1,2.0,3.0,b'SB_45_ShortA.png',2174.1975112797845,65225.925338393536,65225,2174.1666666666665
27,2174.208459,65226.253769999996,65226,2174.2,2174.80833425,65244.2500275,65244,2174.8,2176.8418309999997,65305.254929999996,65305,2176.8333333333335,0.6346250913920812,1,1,2,1,2.0,3.0,b'NB_28_ShortA.png',2177.476456091392,65324.29368274176,65324,2177.4666666666667
28,2177.48911625,65324.6734875,65324,2177.4666666666667,2178.0723295,65342.169884999996,65342,2178.0666666666666,2180.10708225,65403.2124675,65403,2180.1,2.4329906080965884,3,2,3,1,1.0,2.0,b'HB_32_LongA.png',2182.5400728580967,65476.2021857429,65476,2182.5333333333333
29,2182.5507254999998,65476.52176499999,65476,2182.5333333333333,2183.0672815,65492.018444999994,65492,2183.0666666666666,2185.1006755,65553.020265,65553,2185.1,1.2846733657061122,2,1,3,1,2.0,2.0,b'SB_25_ShortA.png',2186.385348865706,65591.56046597118,65591,2186.366666666667
30,2186.40209125,65592.0627375,65592,2186.4,2186.9686415,65609.059245,65609,2186.9666666666667,2189.0035802499997,65670.10740749999,65670,2189.0,1.2386945410398766,2,1,2,1,2.0,3.0,b'SB_49_LongA.png',2190.2422747910396,65707.26824373119,65707,2190.233333333333
31,2190.24612225,65707.3836675,65707,2190.233333333333,2190.8126669999997,65724.38001,65724,2190.8,2192.8472925,65785.418775,65785,2192.8333333333335,2.0659494393039495,1,2,7,2,2.0,3.0,b'NB_12_ShortA.png',2194.913241939304,65847.39725817912,65847,2194.9
32,2194.9221825,65847.665475,65847,2194.9,2195.48872825,65864.6618475,65864,2195.4666666666667,2197.523198,65925.69593999999,65925,2197.5,2.627028712478932,3,2,4,1,1.0,1.0,b'HB_51_LongA.png',2200.150226712479,66004.50680137436,66004,2200.133333333333
33,2200.162922,66004.88766,66004,2200.133333333333,2200.796121,66023.88363,66023,2200.766666666667,2202.8295865,66084.88759500001,66084,2202.8,2.7648678213590756,3,1,6,2,1.0,2.0,b'HB_11_LongA.png',2205.594454321359,66167.83362964078,66167,2205.5666666666666
34,2205.60706675,66168.21200249999,66168,2205.6,2206.1069534999997,66183.20860499999,66183,2206.1,2208.14035375,66244.2106125,66244,2208.133333333333,1.5805299509083852,3,1,6,2,1.0,2.0,b'HB_29_ShortA.png',2209.7208837009084,66291.62651102725,66291,2209.7
35,2209.72839675,66291.8519025,66291,2209.7,2210.2782884999997,66308.348655,66308,2210.266666666667,2212.31167325,66369.3501975,66369,2212.3,1.4148100038873963,3,1,3,1,2.0,2.0,b'HB_43_ShortA.png',2213.726483253887,66411.79449761662,66411,2213.7
36,2213.74350075,66412.30502249999,66412,2213.733333333333,2214.293388,66428.80164,66428,2214.266666666667,2216.32714825,66489.8144475,66489,2216.3,1.176185248827096,3,2,5,2,2.0,1.0,b'HB_2_LongA.png',2217.503333498827,66525.10000496481,66525,2217.5
37,2217.51741525,66525.5224575,66525,2217.5,2218.05063975,66541.5191925,66541,2218.0333333333333,2220.085004,66602.55012,66602,2220.0666666666666,1.300046883057803,2,2,7,2,2.0,3.0,b'SB_23_ShortA.png',2221.385050883058,66641.55152649173,66641,2221.366666666667
38,2221.4064722499998,66642.1941675,66642,2221.4,2221.95641325,66658.6923975,66658,2221.9333333333334,2223.9896909999998,66719.69072999999,66719,2223.9666666666667,1.398338831437286,2,2,7,2,2.0,3.0,b'SB_48_ShortA.png',2225.388029831437,66761.6408949431,66761,2225.366666666667
39,2225.395514,66761.86541999999,66761,2225.366666666667,2225.97867375,66779.3602125,66779,2225.9666666666667,2228.01262575,66840.3787725,66840,2228.0,1.191229224903509,2,2,7,2,2.0,3.0,b'SB_59_ShortA.png',2229.2038549749036,66876.1156492471,66876,2229.2
40,2229.21676075,66876.5028225,66876,2229.2,2229.7833057499997,66893.49917249999,66893,2229.766666666667,2231.8168065,66954.504195,66954,2231.8,1.206508482748177,2,2,7,2,2.0,3.0,b'SB_10_ShortA.png',2233.023314982748,66990.69944948245,66990,2233.0
41,2233.0397709999997,66991.19313,66991,2233.0333333333333,2233.5396695,67006.190085,67006,2233.5333333333333,2235.573351,67067.20053,67067,2235.5666666666666,1.1419774595997296,2,2,7,2,2.0,3.0,b'SB_60_LongA.png',2236.7153284595997,67101.459853788,67101,2236.7
42,2236.7304945,67101.914835,67101,2236.7,2237.33036275,67119.9108825,67119,2237.3,2239.363766,67180.91298,67180,2239.3333333333335,1.2707630244549364,2,2,7,2,2.0,3.0,b'SB_43_ShortA.png',2240.634529024455,67219.03587073364,67219,2240.633333333333
43,2240.6416835,67219.250505,67219,2240.633333333333,2241.224895,67236.74685,67236,2241.2,2243.25830025,67297.7490075,67297,2243.233333333333,2.181509879999794,3,1,6,2,1.0,2.0,b'HB_39_ShortA.png',2245.43981013,67363.19430389999,67363,2245.4333333333334
44,2245.4551604999997,67363.65481499999,67363,2245.4333333333334,2246.0050555,67380.151665,67380,2246.0,2248.0387355,67441.162065,67441,2248.0333333333333,1.314127508783713,2,2,6,2,2.0,2.0,b'SB_3_shortA.png',2249.3528630087835,67480.58589026351,67480,2249.3333333333335
45,2249.372157,67481.16471,67481,2249.366666666667,2249.9220487499997,67497.6614625,67497,2249.9,2251.955857,67558.67571,67558,2251.9333333333334,1.6222314886981621,1,1,3,1,2.0,2.0,b'NB_6_LongA.png',2253.578088488698,67607.34265466094,67607,2253.5666666666666
46,2253.596334,67607.89001999999,67607,2253.5666666666666,2254.09624425,67622.8873275,67622,2254.0666666666666,2256.12992525,67683.89775749999,67683,2256.1,1.765476749627851,1,2,6,2,2.0,2.0,b'NB_29_ShortA.png',2257.8954019996277,67736.86205998882,67736,2257.866666666667
47,2257.91286275,67737.38588249999,67737,2257.9,2258.46275325,67753.88259749999,67753,2258.4333333333334,2260.49701075,67814.9103225,67814,2260.4666666666667,1.2376346628880128,2,1,2,1,2.0,3.0,b'SB_34_ShortA.png',2261.734645412888,67852.03936238664,67852,2261.733333333333
48,2261.7510577499997,67852.53173249999,67852,2261.733333333333,2262.2509335,67867.528005,67867,2262.233333333333,2264.284376,67928.53128,67928,2264.266666666667,1.3976347905700095,1,1,4,1,2.0,1.0,b'NB_25_ShortA.png',2265.68201079057,67970.4603237171,67970,2265.6666666666665
49,2265.6989614999998,67970.968845,67970,2265.6666666666665,2266.315505,67989.46515,67989,2266.3,2268.3488745,68050.466235,68050,2268.3333333333335,1.3334922055946663,2,2,6,2,2.0,2.0,b'SB_1_LongA.png',2269.6823667055946,68090.47100116784,68090,2269.6666666666665
50,2269.691601,68090.74803,68090,2269.6666666666665,2270.29146,68108.7438,68108,2270.266666666667,2272.3250765,68169.752295,68169,2272.3,2.317188279237598,3,2,5,2,2.0,1.0,b'HB_47_LongA.png',2274.6422647792374,68239.26794337713,68239,2274.633333333333
51,2274.6488395,68239.46518500001,68239,2274.633333333333,2275.1987114999997,68255.96134499999,68255,2275.1666666666665,2277.23262875,68316.9788625,68316,2277.2,0.7795994923799299,1,1,3,1,2.0,2.0,b'NB_29_LongA.png',2278.01222824238,68340.36684727139,68340,2278.0
52,2278.0167257499998,68340.50177249999,68340,2278.0,2278.54994425,68356.4983275,68356,2278.5333333333333,2280.5833037499997,68417.4991125,68417,2280.5666666666666,0.4008919384214096,1,1,2,1,2.0,3.0,b'NB_19_ShortA.png',2280.984195688421,68429.52587065264,68429,2280.9666666666667
53,2280.99819725,68429.9459175,68429,2280.9666666666667,2281.4814295,68444.442885,68444,2281.4666666666667,2283.51559575,68505.4678725,68505,2283.5,1.2468128040782176,2,1,3,1,2.0,2.0,b'SB_39_LongA.png',2284.7624085540783,68542.87225662234,68542,2284.733333333333
54,2284.7808542499997,68543.4256275,68543,2284.766666666667,2285.380734,68561.42202,68561,2285.366666666667,2287.4144475,68622.433425,68622,2287.4,1.5034769574995153,1,2,7,2,2.0,3.0,b'NB_14_LongA.png',2288.9179244574993,68667.53773372498,68667,2288.9
55,2288.939744,68668.19231999999,68668,2288.9333333333334,2289.45629675,68683.6889025,68683,2289.4333333333334,2291.489798,68744.69394,68744,2291.4666666666667,1.8570878889295273,1,2,7,2,2.0,3.0,b'NB_10_ShortA.png',2293.3468858889296,68800.40657666788,68800,2293.3333333333335
56,2293.35997225,68800.7991675,68800,2293.3333333333335,2293.8931835,68816.795505,68816,2293.866666666667,2295.9268469999997,68877.80540999999,68877,2295.9,1.8625258475658484,1,2,6,2,2.0,2.0,b'NB_30_ShortA.png',2297.7893728475656,68933.68118542696,68933,2297.766666666667
57,2297.80448425,68934.13452749999,68934,2297.8,2298.3710395,68951.13118499999,68951,2298.366666666667,2300.40526675,69012.1580025,69012,2300.4,1.3528769463882782,1,1,2,1,2.0,3.0,b'NB_15_LongA.png',2301.7581436963883,69052.74431089165,69052,2301.733333333333
58,2301.7642465,69052.92739499999,69052,2301.733333333333,2302.2474267499997,69067.42280249999,69067,2302.233333333333,2304.28125225,69128.43756749999,69128,2304.266666666667,1.2779836485278793,2,2,7,2,2.0,3.0,b'SB_58_LongA.png',2305.5592358985277,69166.77707695583,69166,2305.5333333333333
59,2305.56689475,69167.00684249999,69167,2305.5666666666666,2306.1334465,69184.003395,69184,2306.133333333333,2308.166962,69245.00885999999,69245,2308.1666666666665,2.4436831516213715,1,1,4,1,2.0,1.0,b'NB_4_ShortA.png',2310.610645151621,69318.31935454863,69318,2310.6
60,2310.622734,69318.68202000001,69318,2310.6,2311.1726255,69335.17876499999,69335,2311.1666666666665,2313.205986,69396.17958,69396,2313.2,0.8612760689575225,3,1,5,2,1.0,1.0,b'HB_48_ShortA.png',2314.0672620689575,69422.01786206872,69422,2314.0666666666666
61,2314.0752915,69422.258745,69422,2314.0666666666666,2314.5585229999997,69436.75568999999,69436,2314.5333333333333,2316.592435,69497.77305,69497,2316.5666666666666,1.7432939183781855,3,2,4,1,1.0,1.0,b'HB_58_LongA.png',2318.335728918378,69550.07186755135,69550,2318.3333333333335
62,2318.3547612499997,69550.6428375,69550,2318.3333333333335,2318.83799525,69565.1398575,69565,2318.8333333333335,2320.8715657499997,69626.14697249999,69626,2320.866666666667,1.3284967875224538,2,1,3,1,2.0,2.0,b'SB_4_ShortA.png',2322.200062537522,69666.00187612567,69666,2322.2
63,2322.20306575,69666.0919725,69666,2322.2,2322.71962825,69681.5888475,69681,2322.7,2324.753288,69742.59864,69742,2324.733333333333,1.5233830948127434,1,1,3,1,2.0,2.0,b'NB_2_LongA.png',2326.2766710948126,69788.30013284438,69788,2326.266666666667
64,2326.289707,69788.69120999999,69788,2326.266666666667,2326.922906,69807.68718,69807,2326.9,2328.9562982499997,69868.68894749999,69868,2328.9333333333334,1.1535208736895584,1,1,3,1,2.0,2.0,b'NB_16_ShortA.png',2330.1098191236892,69903.29457371068,69903,2330.1
65,2330.11723425,69903.5170275,69903,2330.1,2330.6504597499998,69919.51379249999,69919,2330.633333333333,2332.6842014999997,69980.52604499999,69980,2332.6666666666665,1.49493848066777,3,1,4,1,2.0,1.0,b'HB_49_ShortA.png',2334.1791399806675,70025.37419942002,70025,2334.1666666666665
66,2334.18547425,70025.5642275,70025,2334.1666666666665,2334.7520255,70042.560765,70042,2334.733333333333,2336.7858895,70103.57668499999,70103,2336.766666666667,1.3005589978420176,2,1,2,1,2.0,3.0,b'SB_47_ShortA.png',2338.086448497842,70142.59345493525,70142,2338.0666666666666
67,2338.09986975,70142.99609249999,70142,2338.0666666666666,2338.6164195,70158.492585,70158,2338.6,2340.65005725,70219.5017175,70219,2340.633333333333,2.214009249524679,3,2,4,1,1.0,1.0,b'HB_50_LongA.png',2342.8640664995246,70285.92199498574,70285,2342.8333333333335
68,2342.87442675,70286.2328025,70286,2342.866666666667,2343.35764375,70300.7293125,70300,2343.3333333333335,2345.3911355,70361.734065,70361,2345.366666666667,1.2827045950107276,2,2,7,2,2.0,3.0,b'SB_18_LongA.png',2346.6738400950107,70400.21520285032,70400,2346.6666666666665
69,2346.6831374999997,70400.494125,70400,2346.6666666666665,2347.2830222499997,70418.4906675,70418,2347.266666666667,2349.3164269999997,70479.49281,70479,2349.3,1.3555572250625119,2,2,6,2,2.0,2.0,b'SB_2_LongA.png',2350.6719842250623,70520.15952675187,70520,2350.6666666666665
70,2350.690353,70520.71059,70520,2350.6666666666665,2351.24017875,70537.2053625,70537,2351.233333333333,2353.273693,70598.21079,70598,2353.266666666667,1.2020503520034254,2,1,3,1,2.0,2.0,b'SB_13_ShortA.png',2354.4757433520035,70634.2723005601,70634,2354.4666666666667
71,2354.4914295,70634.742885,70634,2354.4666666666667,2355.04131275,70651.2393825,70651,2355.0333333333333,2357.07508725,70712.2526175,70712,2357.0666666666666,2.557683065708261,3,2,3,1,1.0,2.0,b'HB_17_ShortA.png',2359.632770315708,70788.98310947124,70788,2359.6
72,2359.65340925,70789.6022775,70789,2359.633333333333,2360.2199499999997,70806.5985,70806,2360.2,2362.254567,70867.63701,70867,2362.233333333333,1.231518946122378,2,1,2,1,2.0,3.0,b'SB_56_ShortA.png',2363.4860859461223,70904.58257838368,70904,2363.4666666666667
73,2363.4934989999997,70904.80497,70904,2363.4666666666667,2364.01005425,70920.3016275,70920,2364.0,2366.04339525,70981.30185749999,70981,2366.0333333333333,1.281426693603862,2,2,7,2,2.0,3.0,b'SB_33_LongA.png',2367.3248219436036,71019.7446583081,71019,2367.3
74,2367.32718425,71019.8155275,71019,2367.3,2367.943729,71038.31187,71038,2367.9333333333334,2369.97711875,71099.3135625,71099,2369.9666666666667,1.4731854731217027,1,1,3,1,2.0,2.0,b'NB_27_ShortA.png',2371.4503042231217,71143.50912669365,71143,2371.4333333333334
75,2371.4653255,71143.95976499999,71143,2371.4333333333334,2372.04855525,71161.45665749999,71161,2372.0333333333333,2374.08229975,71222.4689925,71222,2374.0666666666666,1.2385829277336597,2,2,6,2,2.0,2.0,b'SB_22_ShortA.png',2375.3208826777336,71259.62648033201,71259,2375.3
76,2375.34345325,71260.3035975,71260,2375.3333333333335,2375.9100125,71277.300375,71277,2375.9,2377.9434982499997,71338.30494749999,71338,2377.9333333333334,2.5929703641450033,3,1,3,1,2.0,2.0,b'HB_41_ShortA.png',2380.5364686141447,71416.09405842434,71416,2380.5333333333333
77,2380.552103,71416.56309,71416,2380.5333333333333,2381.16863325,71435.05899749999,71435,2381.1666666666665,2383.20203025,71496.0609075,71496,2383.2,1.0195527856703848,1,1,2,1,2.0,3.0,b'NB_20_LongA.png',2384.2215830356704,71526.6474910701,71526,2384.2
78,2384.23044975,71526.9134925,71526,2384.2,2384.76367,71542.9101,71542,2384.733333333333,2386.7976479999998,71603.92943999999,71603,2386.766666666667,1.8394589397357777,1,2,5,2,2.0,1.0,b'NB_22_LongA.png',2388.6371069397355,71659.11320819207,71659,2388.633333333333
79,2388.65519625,71659.65588749999,71659,2388.633333333333,2389.2550859999997,71677.65258,71677,2389.233333333333,2391.2891302499997,71738.6739075,71738,2391.266666666667,2.3862025292473845,1,2,5,2,2.0,1.0,b'NB_2_ShortA.png',2393.675332779247,71810.25998337741,71810,2393.6666666666665
80,2393.6952929999998,71810.85879,71810,2393.6666666666665,2394.2285185,71826.855555,71826,2394.2,2396.262104,71887.86312,71887,2396.233333333333,2.1412639859481715,3,2,3,1,1.0,2.0,b'HB_22_ShortA.png',2398.403367985948,71952.10103957844,71952,2398.4
81,2398.411849,71952.35547000001,71952,2398.4,2398.9450872499997,71968.35261749999,71968,2398.9333333333334,2400.97846325,72029.3538975,72029,2400.9666666666667,1.2250187689787708,2,2,7,2,2.0,3.0,b'SB_55_LongA.png',2402.203482018979,72066.10446056936,72066,2402.2
82,2402.2211429999998,72066.63428999999,72066,2402.2,2402.821023,72084.63069,72084,2402.8,2404.85526525,72145.65795749999,72145,2404.8333333333335,2.0612175720743835,1,1,2,1,2.0,3.0,b'NB_5_ShortA.png',2406.916482822074,72207.49448466222,72207,2406.9
83,2406.9219215,72207.657645,72207,2406.9,2407.4218215,72222.654645,72222,2407.4,2409.45544825,72283.66344749999,72283,2409.4333333333334,1.5631573586142622,1,1,3,1,2.0,2.0,b'NB_23_LongA.png',2411.018605608614,72330.55816825842,72330,2411.0
84,2411.0298817499997,72330.89645249999,72330,2411.0,2411.5463987499998,72346.3919625,72346,2411.5333333333333,2413.58068525,72407.4205575,72407,2413.5666666666666,0.5510501171229407,1,1,2,1,2.0,3.0,b'NB_13_ShortA.png',2414.131735367123,72423.95206101368,72423,2414.1
85,2414.1482115,72424.446345,72424,2414.133333333333,2414.614755,72438.44265,72438,2414.6,2416.64880175,72499.4640525,72499,2416.633333333333,1.5663655327516608,3,1,6,2,1.0,2.0,b'HB_52_LongA.png',2418.2151672827517,72546.45501848255,72546,2418.2
86,2418.2266462499997,72546.7993875,72546,2418.2,2418.759873,72562.79619,72562,2418.733333333333,2420.79347725,72623.80431749999,72623,2420.766666666667,1.0065314850071445,1,1,2,1,2.0,3.0,b'NB_6_ShortA.png',2421.800008735007,72654.0002620502,72654,2421.8
87,2421.8146752499997,72654.44025749998,72654,2421.8,2422.39788225,72671.9364675,72671,2422.366666666667,2424.43191,72732.9573,72732,2424.4,1.3092471361742355,2,1,2,1,2.0,3.0,b'SB_35_LongA.png',2425.741157136174,72772.23471408522,72772,2425.733333333333
88,2425.7566195,72772.698585,72772,2425.733333333333,2426.423288,72792.69864,72792,2426.4,2428.45679875,72853.7039625,72853,2428.4333333333334,1.22870613244595,2,2,7,2,2.0,3.0,b'SB_17_LongA.png',2429.685504882446,72890.56514647338,72890,2429.6666666666665
89,2429.6970107499997,72890.91032249999,72890,2429.6666666666665,2430.2802334999997,72908.40700499999,72908,2430.266666666667,2432.31466225,72969.4398675,72969,2432.3,1.6605161887127906,1,2,7,2,2.0,3.0,b'NB_14_ShortA.png',2433.9751784387126,73019.25535316138,73019,2433.9666666666667
90,2433.9798687499997,73019.39606249999,73019,2433.9666666666667,2434.513104,73035.39312000001,73035,2434.5,2436.5471104999997,73096.41331499998,73096,2436.5333333333333,1.5289753305260092,3,2,6,2,2.0,2.0,b'HB_23_LongA.png',2438.0760858305257,73142.28257491576,73142,2438.0666666666666
91,2438.083579,73142.50737,73142,2438.0666666666666,2438.66678825,73160.00364750001,73160,2438.6666666666665,2440.7006377499997,73221.01913249999,73221,2440.7,1.087001921259798,3,1,5,2,1.0,1.0,b'HB_46_LongA.png',2441.7876396712595,73253.62919013778,73253,2441.766666666667
92,2441.803597,73254.10791,73254,2441.8,2442.32015525,73269.6046575,73269,2442.3,2444.353479,73330.60437,73330,2444.3333333333335,2.570662001206074,3,1,4,1,2.0,1.0,b'HB_12_LongA.png',2446.924141001206,73407.72423003618,73407,2446.9
93,2446.93607475,73408.0822425,73408,2446.9333333333334,2447.502638,73425.07914,73425,2447.5,2449.53622,73486.0866,73486,2449.5333333333333,1.26208192599006,3,2,6,2,2.0,2.0,b'HB_7_ShortA.png',2450.79830192599,73523.9490577797,73523,2450.766666666667
94,2450.81621575,73524.48647250001,73524,2450.8,2451.48275175,73544.48255249999,73544,2451.4666666666667,2453.51690475,73605.50714249999,73605,2453.5,1.2879105937317945,2,1,3,1,2.0,2.0,b'SB_53_ShortA.png',2454.8048153437317,73644.14446031195,73644,2454.8
95,2454.8109065,73644.32719499999,73644,2454.8,2455.3607985,73660.823955,73660,2455.3333333333335,2457.3945055,73721.835165,73721,2457.366666666667,1.3588183683459647,1,1,2,1,2.0,3.0,b'NB_24_LongA.png',2458.753323868346,73762.59971605038,73762,2458.733333333333
96,2458.7633124999998,73762.899375,73762,2458.733333333333,2459.3631864999998,73780.895595,73780,2459.3333333333335,2461.396824,73841.90471999999,73841,2461.366666666667,0.5966070697759278,3,2,6,2,2.0,2.0,b'HB_54_ShortA.png',2461.993431069776,73859.80293209327,73859,2461.9666666666667
97,2462.001734,73860.05202,73860,2462.0,2462.5849435,73877.548305,73877,2462.5666666666666,2464.6195075,73938.585225,73938,2464.6,1.2499733704025857,2,2,6,2,2.0,2.0,b'SB_51_LongA.png',2465.8694808704026,73976.08442611208,73976,2465.866666666667
98,2465.8774934999997,73976.324805,73976,2465.866666666667,2466.4607045,73993.82113499999,73993,2466.4333333333334,2468.49527375,74054.8582125,74054,2468.4666666666667,1.233417362847831,2,1,2,1,2.0,3.0,b'SB_52_ShortA.png',2469.7286911128476,74091.86073338543,74091,2469.7
99,2469.746468,74092.39404,74092,2469.733333333333,2470.3463455,74110.390365,74110,2470.3333333333335,2472.3802545,74171.407635,74171,2472.366666666667,1.3073437109705992,3,2,6,2,2.0,2.0,b'HB_45_LongA.png',2473.6875982109705,74210.62794632911,74210,2473.6666666666665
100,2473.699002,74210.97005999999,74210,2473.6666666666665,2474.23222725,74226.9668175,74226,2474.2,2476.265785,74287.97355,74287,2476.233333333333,2.7525493761640973,3,1,6,2,1.0,2.0,b'HB_4_LongA.png',2479.018334376164,74370.55003128492,74370,2479.0
101,2479.02731425,74370.8194275,74370,2479.0,2479.510541,74385.31623,74385,2479.5,2481.5440205,74446.320615,74446,2481.5333333333333,1.2919895754312165,2,1,2,1,2.0,3.0,b'SB_27_ShortA.png',2482.836010075431,74485.08030226294,74485,2482.8333333333335
102,2482.8493814999997,74485.481445,74485,2482.8333333333335,2483.44926475,74503.4779425,74503,2483.4333333333334,2485.48370975,74564.5112925,74564,2485.4666666666667,1.2810920417541638,2,1,3,1,2.0,2.0,b'SB_15_LongA.png',2486.764801791754,74602.94405375262,74602,2486.733333333333
103,2486.7803375,74603.410125,74603,2486.766666666667,2487.28023175,74618.4069525,74618,2487.266666666667,2489.31378175,74679.4134525,74679,2489.3,1.9923962670727633,3,1,3,1,2.0,2.0,b'HB_3_LongA.png',2491.306178017073,74739.18534051218,74739,2491.3
104,2491.31123575,74739.3370725,74739,2491.3,2491.96109025,74758.8327075,74758,2491.9333333333334,2493.99481225,74819.8443675,74819,2493.9666666666667,1.5993284822325222,3,1,3,1,2.0,2.0,b'HB_44_LongA.png',2495.5941407322325,74867.82422196698,74867,2495.5666666666666
105,2495.6075742499997,74868.2272275,74868,2495.6,2496.1407875,74884.223625,74884,2496.133333333333,2498.1748915,74945.246745,74945,2498.1666666666665,1.1325520027894527,2,1,2,1,2.0,3.0,b'SB_24_LongA.png',2499.3074435027893,74979.22330508368,74979,2499.3
106,2499.32303475,74979.6910425,74979,2499.3,2499.8895945,74996.687835,74996,2499.866666666667,2501.924005,75057.72015,75057,2501.9,2.276556611061096,1,1,2,1,2.0,3.0,b'NB_13_LongA.png',2504.200561611061,75126.01684833183,75126,2504.2
107,2504.20934925,75126.2804775,75126,2504.2,2504.72589725,75141.7769175,75141,2504.7,2506.76056475,75202.8169425,75202,2506.733333333333,1.9616065575974062,3,1,3,1,2.0,2.0,b'HB_24_LongA.png',2508.7221713075974,75261.66513922792,75261,2508.7
108,2508.72942875,75261.8828625,75261,2508.7,2509.22933075,75276.8799225,75276,2509.2,2511.26365425,75337.9096275,75337,2511.233333333333,2.078425781102851,3,2,4,1,1.0,1.0,b'HB_6_ShortA.png',2513.342080031103,75400.26240093309,75400,2513.3333333333335
109,2513.35074925,75400.5224775,75400,2513.3333333333335,2513.950632,75418.51896,75418,2513.9333333333334,2515.983991,75479.51973,75479,2515.9666666666667,2.109833404654637,3,1,4,1,2.0,1.0,b'HB_1_ShortA.png',2518.0938244046547,75542.81473213964,75542,2518.0666666666666
110,2518.106123,75543.18369,75543,2518.1,2518.6393445,75559.180335,75559,2518.633333333333,2520.6735205,75620.205615,75620,2520.6666666666665,1.2397625602316111,2,1,2,1,2.0,3.0,b'SB_8_LongA.png',2521.9132830602316,75657.39849180695,75657,2521.9
111,2521.9309814999997,75657.92944499999,75657,2521.9,2522.447494,75673.42482,75673,2522.4333333333334,2524.482146,75734.46437999999,75734,2524.4666666666667,1.8226806108141318,1,2,7,2,2.0,3.0,b'NB_5_LongA.png',2526.304826610814,75789.14479832441,75789,2526.3
112,2526.310788,75789.32363999999,75789,2526.3,2526.7940249999997,75803.82074999998,75803,2526.766666666667,2528.827712,75864.83136,75864,2528.8,0.5052020822186023,1,1,3,1,2.0,2.0,b'NB_8_ShortA.png',2529.3329140822184,75879.98742246655,75879,2529.3
113,2529.347739,75880.43217,75880,2529.3333333333335,2529.88092675,75896.4278025,75896,2529.866666666667,2531.91495175,75957.4485525,75957,2531.9,1.7176290801144205,3,2,7,2,2.0,3.0,b'HB_8_ShortA.png',2533.6325808301144,76008.97742490344,76008,2533.6
114,2533.6458332499997,76009.3749975,76009,2533.633333333333,2534.1457272499997,76024.3718175,76024,2534.133333333333,2536.1801192499997,76085.4035775,76085,2536.1666666666665,3.281237261602655,3,1,3,1,2.0,2.0,b'HB_37_ShortA.png',2539.4613565116024,76183.84069534807,76183,2539.4333333333334
115,2539.477544,76184.32632,76184,2539.4666666666667,2540.0274345,76200.823035,76200,2540.0,2542.06082925,76261.82487750001,76261,2542.0333333333333,1.8051439023111016,1,1,2,1,2.0,3.0,b'NB_9_ShortA.png',2543.865973152311,76315.97919456934,76315,2543.8333333333335
116,2543.88767075,76316.63012249999,76316,2543.866666666667,2544.38756125,76331.6268375,76331,2544.366666666667,2546.4209005,76392.62701499999,76392,2546.4,1.1912578381597996,2,2,5,2,2.0,1.0,b'SB_29_LongA.png',2547.6121583381596,76428.36475014478,76428,2547.6
117,2547.61806225,76428.5418675,76428,2547.6,2548.1512897499997,76444.53869249999,76444,2548.133333333333,2550.1847049999997,76505.54114999999,76505,2550.1666666666665,1.8275575421284884,1,1,2,1,2.0,3.0,b'NB_26_ShortA.png',2552.012262542128,76560.36787626384,76560,2552.0
118,2552.02647675,76560.7943025,76560,2552.0,2552.6596744999997,76579.790235,76579,2552.633333333333,2554.693555,76640.80665,76640,2554.6666666666665,2.5081961001851596,1,2,7,2,2.0,3.0,b'NB_25_LongA.png',2557.201751100185,76716.05253300555,76716,2557.2
119,2557.2103764999997,76716.31129499999,76716,2557.2,2557.710271,76731.30812999999,76731,2557.7,2559.7448624999997,76792.345875,76792,2559.733333333333,1.4606701519223861,1,1,2,1,2.0,3.0,b'NB_12_LongA.png',2561.205532651922,76836.16597955767,76836,2561.2
120,2561.2228195,76836.684585,76836,2561.2,2561.7560415,76852.681245,76852,2561.733333333333,2563.789764,76913.69292,76913,2563.766666666667,1.572437477123458,1,2,7,2,2.0,3.0,b'NB_27_LongA.png',2565.3622014771236,76960.8660443137,76960,2565.3333333333335
121,2565.36518275,76960.9554825,76960,2565.3333333333335,2566.01505125,76980.4515375,76980,2566.0,2568.0484229999997,77041.45268999999,77041,2568.0333333333333,0.41606256464729086,1,2,6,2,2.0,2.0,b'NB_16_LongA.png',2568.464485564647,77053.93456693941,77053,2568.4333333333334
122,2568.46969375,77054.0908125,77054,2568.4666666666667,2569.036248,77071.08744,77071,2569.0333333333333,2571.0701265,77132.10379499999,77132,2571.0666666666666,1.2693388143088669,2,2,2,1,1.0,3.0,b'SB_54_LongA.png',2572.3394653143087,77170.18395942925,77170,2572.3333333333335
123,2572.3563885,77170.691655,77170,2572.3333333333335,2572.9062774999998,77187.188325,77187,2572.9,2574.93996725,77248.1990175,77248,2574.9333333333334,2.5033429145114496,3,2,6,2,2.0,2.0,b'HB_30_LongA.png',2577.4433101645113,77323.29930493534,77323,2577.4333333333334
124,2577.45802375,77323.7407125,77323,2577.4333333333334,2578.0245797499997,77340.73739249998,77340,2578.0,2580.058207,77401.74621,77401,2580.0333333333333,1.2149441477376968,2,2,7,2,2.0,3.0,b'SB_46_LongA.png',2581.2731511477377,77438.19453443213,77438,2581.266666666667
125,2581.2808204999997,77438.424615,77438,2581.266666666667,2581.8973695,77456.921085,77456,2581.866666666667,2583.93117175,77517.9351525,77517,2583.9,1.2610713600297458,2,1,6,2,1.0,2.0,b'SB_37_ShortA.png',2585.1922431100297,77555.76729330089,77555,2585.1666666666665
126,2585.195796,77555.87388,77555,2585.1666666666665,2585.79565625,77573.8696875,77573,2585.766666666667,2587.82908775,77634.8726325,77634,2587.8,1.1174452190753073,1,2,6,2,2.0,2.0,b'NB_4_LongA.png',2588.946532969075,77668.39598907226,77668,2588.9333333333334
127,2588.95921225,77668.77636749999,77668,2588.9333333333334,2589.55908825,77686.77264750001,77686,2589.5333333333333,2591.5924637499998,77747.7739125,77747,2591.5666666666666,0.4675527166109532,1,1,2,1,2.0,3.0,b'NB_21_LongA.png',2592.0600164666107,77761.80049399832,77761,2592.0333333333333
128,2592.0755022499998,77762.26506749999,77762,2592.0666666666666,2592.558728,77776.76183999999,77776,2592.5333333333333,2594.5922714999997,77837.768145,77837,2594.5666666666666,0.2606256054714322,3,1,6,2,1.0,2.0,b'HB_38_LongA.png',2594.852897105471,77845.58691316414,77845,2594.8333333333335
129,2594.86065275,77845.8195825,77845,2594.8333333333335,2595.4272135,77862.816405,77862,2595.4,2597.4610195,77923.830585,77923,2597.4333333333334,1.228423556254711,3,1,3,1,2.0,2.0,b'HB_25_LongA.png',2598.6894430562547,77960.68329168764,77960,2598.6666666666665
130,2598.703526,77961.10578,77961,2598.7,2599.28674,77978.6022,77978,2599.266666666667,2601.3204065,78039.612195,78039,2601.3,1.8113874465343542,3,1,2,1,2.0,3.0,b'HB_42_ShortA.png',2603.1317939465343,78093.95381839602,78093,2603.1
131,2603.148996,78094.46987999999,78094,2603.133333333333,2603.665574,78109.96722,78109,2603.633333333333,2605.69985625,78170.99568749999,78170,2605.6666666666665,2.1474096676683985,3,1,7,2,1.0,3.0,b'HB_16_LongA.png',2607.847265917668,78235.41797753004,78235,2607.8333333333335
132,2607.86246075,78235.8738225,78235,2607.8333333333335,2608.39564325,78251.8692975,78251,2608.366666666667,2610.4296947499997,78312.8908425,78312,2610.4,1.3139295240398496,1,1,2,1,2.0,3.0,b'NB_11_LongA.png',2611.7436242740396,78352.30872822119,78352,2611.733333333333
133,2611.765088,78352.95264,78352,2611.733333333333,2612.36496375,78370.9489125,78370,2612.3333333333335,2614.3992715,78431.978145,78431,2614.366666666667,0.9167073763674125,1,1,2,1,2.0,3.0,b'NB_8_LongA.png',2615.3159788763674,78459.47936629102,78459,2615.3
134,2615.32158075,78459.6474225,78459,2615.3,2615.87157175,78476.1471525,78476,2615.866666666667,2617.90488075,78537.1464225,78537,2617.9,0.5967953002545983,1,2,7,2,2.0,3.0,b'NB_20_ShortA.png',2618.5016760502544,78555.05028150763,78555,2618.5
135,2618.52407025,78555.7221075,78555,2618.5,2619.07394675,78572.21840249999,78572,2619.0666666666666,2621.10741375,78633.2224125,78633,2621.1,1.6513539694715291,3,1,7,2,1.0,3.0,b'HB_10_ShortA.png',2622.7587677194715,78682.76303158415,78682,2622.733333333333
136,2622.77743125,78683.32293750001,78683,2622.766666666667,2623.360648,78700.81943999999,78700,2623.3333333333335,2625.3951992499997,78761.85597749999,78761,2625.366666666667,1.404178800061345,1,1,6,2,1.0,2.0,b'NB_19_LongA.png',2626.799378050061,78803.98134150183,78803,2626.766666666667
137,2626.8055675,78804.167025,78804,2626.8,2627.37212125,78821.1636375,78821,2627.366666666667,2629.4065727499997,78882.1971825,78882,2629.4,0.8781970054842532,1,1,3,1,2.0,2.0,b'NB_21_ShortA.png',2630.284769755484,78908.54309266452,78908,2630.266666666667
138,2630.2922209999997,78908.76663,78908,2630.266666666667,2630.79211825,78923.7635475,78923,2630.766666666667,2632.825497,78984.76491,78984,2632.8,1.344217446865514,2,2,2,1,1.0,3.0,b'SB_11_ShortA.png',2634.1697144468653,79025.09143340596,79025,2634.1666666666665
139,2634.1781312499998,79025.34393749999,79025,2634.1666666666665,2634.7113515,79041.340545,79041,2634.7,2636.7447205,79102.341615,79102,2636.733333333333,2.2044384566834196,1,2,6,2,2.0,2.0,b'NB_18_LongA.png',2638.9491589566833,79168.4747687005,79168,2638.9333333333334
140,2638.96607225,79168.9821675,79168,2638.9333333333334,2639.46597225,79183.9791675,79183,2639.4333333333334,2641.50053425,79245.0160275,79245,2641.5,1.8029035034123808,3,2,6,2,2.0,2.0,b'HB_5_ShortA.png',2643.3034377534123,79299.10313260237,79299,2643.3
141,2643.32239275,79299.6717825,79299,2643.3,2643.88893525,79316.6680575,79316,2643.866666666667,2645.9222852499997,79377.66855749999,79377,2645.9,1.6258737936150283,3,1,2,1,2.0,3.0,b'HB_15_ShortA.png',2647.5481590436148,79426.44477130844,79426,2647.5333333333333
142,2647.56181625,79426.8544875,79426,2647.5333333333333,2648.09503425,79442.8510275,79442,2648.0666666666666,2650.1290605,79503.87181499999,79503,2650.1,1.373611545190215,2,1,7,2,1.0,3.0,b'SB_44_ShortA.png',2651.50267204519,79545.0801613557,79545,2651.5
143,2651.51824775,79545.5474325,79545,2651.5,2652.0014752499997,79560.04425749999,79560,2652.0,2654.03484825,79621.0454475,79621,2654.0333333333333,1.314373609260656,2,2,2,1,1.0,3.0,b'SB_50_LongA.png',2655.3492218592605,79660.47665577782,79660,2655.3333333333335
144,2655.3646397499997,79660.9391925,79660,2655.3333333333335,2655.91445425,79677.4336275,79677,2655.9,2657.9478605,79738.435815,79738,2657.9333333333334,1.1571853576460853,2,1,2,1,2.0,3.0,b'SB_14_ShortA.png',2659.105045857646,79773.15137572939,79773,2659.1
145,2659.1164692499997,79773.49407749998,79773,2659.1,2659.6163684999997,79788.49105499999,79788,2659.6,2661.6497985,79849.493955,79849,2661.633333333333,0.9968978075776249,3,1,7,2,1.0,3.0,b'HB_56_LongA.png',2662.6466963075777,79879.40088922733,79879,2662.633333333333
146,2662.6664455,79879.993365,79879,2662.633333333333,2663.18299025,79895.48970749999,79895,2663.1666666666665,2665.2166615,79956.499845,79956,2665.2,2.8080314427497797,1,1,6,2,1.0,2.0,b'NB_26_LongA.png',2668.02469294275,80040.74078828249,80040,2668.0
147,2668.0406627499997,80041.2198825,80041,2668.0333333333333,2668.54055825,80056.21674749999,80056,2668.5333333333333,2670.5751345,80117.25403499999,80117,2670.5666666666666,1.5030248995753936,1,2,2,1,1.0,3.0,b'NB_24_ShortA.png',2672.0781593995753,80162.34478198725,80162,2672.0666666666666
148,2672.0924702499997,80162.7741075,80162,2672.0666666666666,2672.659021,80179.77063,80179,2672.633333333333,2674.6932982499998,80240.79894749999,80240,2674.6666666666665,1.3582280240370892,2,1,7,2,1.0,3.0,b'SB_30_LongA.png',2676.051526274037,80281.5457882211,80281,2676.0333333333333
149,2676.0556145,80281.668435,80281,2676.0333333333333,2676.605493,80298.16479,80298,2676.6,2678.63957,80359.1871,80359,2678.633333333333,1.5845426416490227,1,1,6,2,1.0,2.0,b'NB_7_ShortA.png',2680.224112641649,80406.72337924947,80406,2680.2
150,2680.238871,80407.16613,80407,2680.233333333333,2680.72209025,80421.6627075,80421,2680.7,2682.7561769999998,80482.68530999999,80482,2682.733333333333,0.1751946937874891,1,2,2,1,1.0,3.0,b'NB_3_ShortA.png',2682.9313716937872,80487.94115081361,80487,2682.9
151,2682.9498802499998,80488.49640749999,80488,2682.9333333333334,2683.516443,80505.49329,80505,2683.5,2685.55016325,80566.5048975,80566,2685.5333333333333,3.1831201813183725,3,1,3,1,2.0,2.0,b'HB_57_ShortA.png',2688.7332834313183,80661.99850293955,80661,2688.7
152,2688.75365325,80662.60959749999,80662,2688.733333333333,2689.33685725,80680.1057175,80680,2689.3333333333335,2691.37022325,80741.1066975,80741,2691.366666666667,1.3325098900240846,2,1,3,1,2.0,2.0,b'SB_57_LongA.png',2692.702733140024,80781.08199420072,80781,2692.7
153,2692.714132,80781.42396,80781,2692.7,2693.2306947499997,80796.9208425,80796,2693.2,2695.26435125,80857.9305375,80857,2695.233333333333,1.278622048033867,2,2,7,2,2.0,3.0,b'SB_20_ShortA.png',2696.5429732980338,80896.28919894101,80896,2696.5333333333333
154,2696.54871825,80896.4615475,80896,2696.5333333333333,2697.1319275,80913.957825,80913,2697.1,2699.1652477499997,80974.95743249998,80974,2699.133333333333,1.4214054974727333,2,2,4,1,1.0,1.0,b'SB_26_ShortA.png',2700.5866532474724,81017.59959742417,81017,2700.5666666666666
155,2700.60092,81018.0276,81018,2700.6,2701.1508019999997,81034.52406,81034,2701.133333333333,2703.1848365,81095.54509500001,81095,2703.1666666666665,2.3488657028065063,1,1,6,2,1.0,2.0,b'NB_15_ShortA.png',2705.5337022028066,81166.0110660842,81166,2705.5333333333333
156,2705.5493389999997,81166.48017,81166,2705.5333333333333,2706.11588875,81183.4766625,81183,2706.1,2708.149331,81244.47993,81244,2708.133333333333,1.231767894118093,2,1,2,1,2.0,3.0,b'SB_40_LongA.png',2709.381098894118,81281.43296682354,81281,2709.366666666667
157,2709.3978285,81281.934855,81281,2709.366666666667,2709.94771425,81298.4314275,81298,2709.9333333333334,2711.98104575,81359.4313725,81359,2711.9666666666667,1.3796409081551246,2,2,7,2,2.0,3.0,b'SB_42_LongA.png',2713.360686658155,81400.82059974465,81400,2713.3333333333335
158,2713.3734612499998,81401.2038375,81401,2713.366666666667,2713.890023,81416.70069,81416,2713.866666666667,2715.9239132499997,81477.71739749999,81477,2715.9,1.7075797842117026,3,2,3,1,1.0,2.0,b'HB_9_ShortA.png',2717.6314930342114,81528.94479102634,81528,2717.6
159,2717.6416744999997,81529.25023499998,81529,2717.633333333333,2718.2082284999997,81546.24685499999,81546,2718.2,2720.24248675,81607.2746025,81607,2720.233333333333,1.1894288856419735,2,2,3,1,1.0,2.0,b'SB_41_LongA.png',2721.431915635642,81642.95746906925,81642,2721.4
160,2721.44454525,81643.3363575,81643,2721.4333333333334,2722.02776425,81660.8329275,81660,2722.0,2724.0624454999997,81721.87336499999,81721,2724.0333333333333,3.30676235712599,3,2,6,2,2.0,2.0,b'HB_36_ShortA.png',2727.3692078571257,81821.07623571377,81821,2727.366666666667
161,2727.3798535,81821.395605,81821,2727.366666666667,2727.8797569999997,81836.39270999999,81836,2727.866666666667,2729.9141772499997,81897.42531749999,81897,2729.9,1.2672452394617721,3,2,7,2,2.0,3.0,b'HB_34_ShortA.png',2731.1814224894615,81935.44267468384,81935,2731.1666666666665
162,2731.1964789999997,81935.89437,81935,2731.1666666666665,2731.86300325,81955.8900975,81955,2731.8333333333335,2733.89632525,82016.8897575,82016,2733.866666666667,1.0146116631221958,1,2,6,2,2.0,2.0,b'NB_17_LongA.png',2734.910936913122,82047.32810739367,82047,2734.9
163,2734.9166419999997,82047.49926,82047,2734.9,2735.48320125,82064.49603750001,82064,2735.4666666666667,2737.516832,82125.50495999999,82125,2737.5,1.6688419037382118,3,2,4,1,1.0,1.0,b'HB_20_ShortA.png',2739.185673903738,82175.57021711214,82175,2739.1666666666665
164,2739.1968242499997,82175.90472749999,82175,2739.1666666666665,2739.7966659999997,82193.89997999999,82193,2739.766666666667,2741.83039925,82254.9119775,82254,2741.8,1.6528764555114321,1,1,2,1,2.0,3.0,b'NB_1_LongA.png',2743.4832757055115,82304.49827116534,82304,2743.4666666666667
165,2743.498029,82304.94086999999,82304,2743.4666666666667,2744.04792025,82321.4376075,82321,2744.0333333333333,2746.08129275,82382.4387825,82382,2746.0666666666666,1.0016713723307475,3,1,5,2,1.0,1.0,b'HB_53_ShortA.png',2747.082964122331,82412.48892366992,82412,2747.0666666666666
166,2747.0958379999997,82412.87513999999,82412,2747.0666666666666,2747.6623877499997,82429.87163249998,82429,2747.633333333333,2749.69586425,82490.87592749999,82490,2749.6666666666665,1.2803828814066947,1,2,4,1,1.0,1.0,b'NB_22_ShortA.png',2750.9762471314066,82529.28741394219,82529,2750.9666666666667
167,2750.9787807499997,82529.3634225,82529,2750.9666666666667,2751.611998,82548.35994,82548,2751.6,2753.646577,82609.39731,82609,2753.633333333333,1.6231015990488231,1,2,3,1,1.0,2.0,b'NB_10_LongA.png',2755.269678599049,82658.09035797146,82658,2755.266666666667
168,2755.27874425,82658.3623275,82658,2755.266666666667,2755.8119695,82674.359085,82674,2755.8,2757.84527825,82735.35834749999,82735,2757.8333333333335,1.2892051141243428,3,1,3,1,2.0,2.0,b'HB_14_LongA.png',2759.134483364124,82774.03450092372,82774,2759.133333333333
169,2759.1554444999997,82774.66333499999,82774,2759.133333333333,2759.7053257499997,82791.15977249999,82791,2759.7,2761.7388794999997,82852.16638499999,82852,2761.733333333333,1.2359470530645922,2,2,2,1,1.0,3.0,b'SB_9_ShortA.png',2762.9748265530643,82889.24479659193,82889,2762.9666666666667
170,2762.98112925,82889.43387749999,82889,2762.9666666666667,2763.51436475,82905.4309425,82905,2763.5,2765.54783075,82966.43492249999,82966,2765.5333333333333,1.1850965758203529,2,1,4,1,2.0,1.0,b'SB_36_LongA.png',2766.73292732582,83001.9878197746,83001,2766.7
171,2766.751539,83002.54617,83002,2766.733333333333,2767.36807475,83021.0422425,83021,2767.366666666667,2769.4017325,83082.051975,83082,2769.4,2.4042525644181296,3,2,2,1,1.0,3.0,b'HB_21_LongA.png',2771.805985064418,83154.17955193254,83154,2771.8
172,2771.82749775,83154.8249325,83154,2771.8,2772.360718,83170.82154,83170,2772.3333333333335,2774.39402325,83231.82069749999,83231,2774.366666666667,1.3526589809916914,1,2,7,2,2.0,3.0,b'NB_3_LongA.png',2775.7466822309916,83272.40046692974,83272,2775.733333333333
173,2775.761927,83272.85781,83272,2775.733333333333,2776.29515575,83288.8546725,83288,2776.266666666667,2778.329541,83349.88623,83349,2778.3,2.3114571513142437,3,2,2,1,1.0,3.0,b'HB_60_ShortA.png',2780.6409981513143,83419.22994453943,83419,2780.633333333333
174,2780.65960625,83419.78818749999,83419,2780.633333333333,2781.19283025,83435.7849075,83435,2781.1666666666665,2783.2263465,83496.790395,83496,2783.2,1.4892057898105122,1,2,2,1,1.0,3.0,b'NB_11_ShortA.png',2784.7155522898106,83541.46656869432,83541,2784.7
175,2784.722915,83541.68745,83541,2784.7,2785.2894607499998,83558.6838225,83558,2785.266666666667,2787.3238149999997,83619.71445,83619,2787.3,0.0,1,2,1,1,1.0,0.0,b'NB_1_ShortA.png',2787.3238149999997,83619.71445,83619,2787.3
176,2788.076396,83642.29188,83642,2788.0666666666666,2788.626273,83658.78818999999,83658,2788.6,2790.65963475,83719.7890425,83719,2790.633333333333,0.0,3,2,1,1,1.0,0.0,b'HB_31_ShortA.png',2790.65963475,83719.7890425,83719,2790.633333333333
177,2791.95194975,83758.5584925,83758,2791.9333333333334,2792.4351724999997,83773.05517499999,83773,2792.4333333333334,2794.4691045,83834.073135,83834,2794.4666666666667,0.0,1,2,1,1,1.0,0.0,b'NB_9_LongA.png',2794.4691045,83834.073135,83834,2794.4666666666667
178,2795.97421575,83879.2264725,83879,2795.9666666666667,2796.5407637499998,83896.22291249999,83896,2796.5333333333333,2798.5741842499997,83957.22552749999,83957,2798.5666666666666,0.0,3,2,1,1,1.0,0.0,b'HB_59_LongA.png',2798.5741842499997,83957.22552749999,83957,2798.5666666666666
179,2800.52299375,84015.6898125,84015,2800.5,2801.0190245,84030.570735,84030,2801.0,2803.0487479999997,84091.46243999999,84091,2803.0333333333333,1.298899746092502,2,1,3,1,2.0,2.0,b'SB_30_ShortA.png',2804.347647746092,84130.42943238276,84130,2804.3333333333335
180,2804.3734624999997,84131.20387499999,84131,2804.366666666667,2804.9398067499997,84148.19420249999,84148,2804.9333333333334,2806.97006875,84209.1020625,84209,2806.9666666666667,1.2858696199255064,2,2,7,2,2.0,3.0,b'SB_30_LongA.png',2808.2559383699254,84247.67815109776,84247,2808.233333333333
