trial_num,fixcross_time,fixation_HZ,fixation_bin,fixation_regarded,start_time,Fstart_HZ,Fstart_bin,Fstart_regarded,stop_time,Fstop_HZ,Fstop_bin,Fstop_regarded,RT,boundary_type,key,resp_value,leftright,accuracy,confidence,frameName,response_time,response_HZ,response_bin,response_regarded
1,2205.1475327499998,66154.42598249999,66154,2205.133333333333,2205.76412275,66172.9236825,66172,2205.733333333333,2207.7993994999997,66233.98198499999,66233,2207.766666666667,2.2469936250708997,2,1,4,1,2.0,1.0,b'SB_14_LongA.png',2210.0463931250706,66301.39179375212,66301,2210.0333333333333
2,2210.0557372499998,66301.6721175,66301,2210.0333333333333,2210.6222595,66318.667785,66318,2210.6,2212.6557104999997,66379.67131499999,66379,2212.633333333333,1.0255064646480605,1,1,3,1,2.0,2.0,b'NB_17_LongA.png',2213.681216964648,66410.43650893943,66410,2213.6666666666665
3,2213.6930565,66410.79169499999,66410,2213.6666666666665,2214.24292475,66427.2877425,66427,2214.233333333333,2216.27664475,66488.29934249999,66488,2216.266666666667,2.385574709973298,2,1,4,1,2.0,1.0,b'SB_44_LongA.png',2218.662219459973,66559.86658379919,66559,2218.633333333333
4,2218.6837674999997,66560.513025,66560,2218.6666666666665,2219.20038425,66576.0115275,66576,2219.2,2221.23405375,66637.0216125,66637,2221.233333333333,2.5714007085189223,3,2,3,1,1.0,2.0,b'HB_15_ShortA.png',2223.805454458519,66714.16363375557,66714,2223.8
5,2223.8085005,66714.25501499999,66714,2223.8,2224.29186875,66728.7560625,66728,2224.266666666667,2226.32547975,66789.7643925,66789,2226.3,1.9747558813542128,1,2,5,2,2.0,1.0,b'NB_5_LongA.png',2228.300235631354,66849.00706894063,66849,2228.3
6,2228.31057475,66849.3172425,66849,2228.3,2228.844178,66865.32534,66865,2228.8333333333335,2230.87744425,66926.3233275,66926,2230.866666666667,3.215439099818468,3,2,3,1,1.0,2.0,b'HB_31_LongA.png',2234.0928833498183,67022.78650049455,67022,2234.0666666666666
7,2234.0966922499997,67022.90076749999,67022,2234.0666666666666,2234.580027,67037.40080999999,67037,2234.5666666666666,2236.613565,67098.40695,67098,2236.6,2.317993236705661,1,2,6,2,2.0,2.0,b'NB_29_LongA.png',2238.9315582367058,67167.94674710117,67167,2238.9
8,2238.947844,67168.43531999999,67168,2238.9333333333334,2239.48093875,67184.4281625,67184,2239.4666666666667,2241.51461325,67245.4383975,67245,2241.5,2.2330561890266836,2,2,6,2,2.0,2.0,b'SB_18_LongA.png',2243.7476694390266,67312.4300831708,67312,2243.733333333333
9,2243.76263625,67312.8790875,67312,2243.733333333333,2244.32927375,67329.8782125,67329,2244.3,2246.36292775,67390.8878325,67390,2246.3333333333335,3.4985043352935463,1,2,6,2,2.0,2.0,b'NB_27_LongA.png',2249.8614320852935,67495.8429625588,67495,2249.8333333333335
10,2249.86516925,67495.9550775,67495,2249.8333333333335,2250.38184475,67511.45534249999,67511,2250.366666666667,2252.415306,67572.45917999999,67572,2252.4,2.1688432439696044,2,2,6,2,2.0,2.0,b'SB_37_LongA.png',2254.5841492439695,67637.52447731908,67637,2254.5666666666666
11,2254.5965515,67637.896545,67637,2254.5666666666666,2255.1464815,67654.394445,67654,2255.133333333333,2257.1800412499997,67715.40123749999,67715,2257.1666666666665,1.7853283799486235,2,1,3,1,2.0,2.0,b'SB_34_LongA.png',2258.9653696299483,67768.96108889845,67768,2258.9333333333334
12,2258.97404475,67769.2213425,67769,2258.9666666666667,2259.5073159999997,67785.21947999999,67785,2259.5,2261.5408359999997,67846.22507999999,67846,2261.5333333333333,2.005912674125284,2,1,3,1,2.0,2.0,b'SB_3_ShortA.png',2263.546748674125,67906.40246022375,67906,2263.5333333333333
13,2263.550291,67906.50873,67906,2263.5333333333333,2264.083569,67922.50706999999,67922,2264.0666666666666,2266.11706475,67983.5119425,67983,2266.1,2.522601034375839,2,1,3,1,2.0,2.0,b'SB_23_ShortA.png',2268.6396657843757,68059.18997353128,68059,2268.633333333333
14,2268.6499369999997,68059.49810999999,68059,2268.633333333333,2269.14985025,68074.49550749999,68074,2269.133333333333,2271.183477,68135.50431,68135,2271.1666666666665,2.6849764198996127,2,2,6,2,2.0,2.0,b'SB_9_LongA.png',2273.8684534198997,68216.05360259699,68216,2273.866666666667
15,2273.8826329999997,68216.47898999999,68216,2273.866666666667,2274.4659659999998,68233.97897999999,68233,2274.4333333333334,2276.4995492499997,68294.98647749999,68294,2276.4666666666667,1.1904026755364612,1,1,3,1,2.0,2.0,b'NB_3_ShortA.png',2277.689951925536,68330.69855776608,68330,2277.6666666666665
16,2277.7007985,68331.023955,68331,2277.7,2278.18415125,68345.5245375,68345,2278.1666666666665,2280.2178415,68406.53524499999,68406,2280.2,2.294140481739305,2,1,3,1,2.0,2.0,b'SB_50_LongA.png',2282.511981981739,68475.35945945217,68475,2282.5
17,2282.5273155,68475.819465,68475,2282.5,2283.11069375,68493.3208125,68493,2283.1,2285.144107,68554.32321,68554,2285.133333333333,2.383805812918581,2,1,3,1,2.0,2.0,b'SB_59_ShortA.png',2287.5279128129187,68625.83738438756,68625,2287.5
18,2287.5307844999998,68625.923535,68625,2287.5,2288.09745275,68642.92358249999,68642,2288.0666666666666,2290.1310245,68703.930735,68703,2290.1,2.784648116212338,3,1,6,2,1.0,2.0,b'HB_8_LongA.png',2292.9156726162123,68787.47017848637,68787,2292.9
19,2292.93254175,68787.9762525,68787,2292.9,2293.44926525,68803.4779575,68803,2293.4333333333334,2295.48280725,68864.4842175,68864,2295.4666666666667,2.4635695829056203,2,2,6,2,2.0,2.0,b'SB_1_LongA.png',2297.9463768329056,68938.39130498716,68938,2297.9333333333334
20,2297.9588412499998,68938.76523749999,68938,2297.9333333333334,2298.4420597499998,68953.2617925,68953,2298.4333333333334,2300.4756589999997,69014.26976999998,69014,2300.4666666666667,2.092101310612634,1,2,6,2,2.0,2.0,b'NB_27_ShortA.png',2302.5677603106124,69077.03280931836,69077,2302.5666666666666
21,2302.5716657499997,69077.14997249999,69077,2302.5666666666666,2303.05497875,69091.6493625,69091,2303.0333333333333,2305.08875175,69152.6625525,69152,2305.0666666666666,3.1814665666315705,3,1,6,2,1.0,2.0,b'HB_22_LongA.png',2308.2702183166316,69248.10654949895,69248,2308.266666666667
22,2308.277577,69248.32731,69248,2308.266666666667,2308.84416175,69265.3248525,69265,2308.8333333333335,2310.87780475,69326.3341425,69326,2310.866666666667,1.844033884233795,3,1,6,2,1.0,2.0,b'HB_4_LongA.png',2312.721838634234,69381.65515902701,69381,2312.7
23,2312.73424575,69382.0273725,69382,2312.733333333333,2313.2675209999998,69398.02562999999,69398,2313.266666666667,2315.3010165,69459.030495,69459,2315.3,3.062936068046838,2,1,3,1,2.0,2.0,b'SB_7_LongA.png',2318.363952568047,69550.9185770414,69550,2318.3333333333335
24,2318.3784485,69551.353455,69551,2318.366666666667,2318.96163625,69568.8490875,69568,2318.9333333333334,2321.0311564999997,69630.93469499999,69630,2321.0,3.2472017547115684,1,2,6,2,2.0,2.0,b'NB_15_LongA.png',2324.2783582547113,69728.35074764134,69728,2324.266666666667
25,2324.2906467499997,69728.71940249999,69728,2324.266666666667,2324.7739242499997,69743.21772749998,69743,2324.766666666667,2326.8075907499997,69804.22772249999,69804,2326.8,1.994452724000439,2,2,6,2,2.0,2.0,b'SB_39_LongA.png',2328.802043474,69864.06130422,69864,2328.8
26,2328.81905875,69864.5717625,69864,2328.8,2329.30232725,69879.0698175,69879,2329.3,2331.3358639999997,69940.07591999999,69940,2331.3333333333335,2.061354832025245,1,2,6,2,2.0,2.0,b'NB_22_LongA.png',2333.397218832025,70001.91656496075,70001,2333.366666666667
27,2333.40474175,70002.14225250001,70002,2333.4,2333.9046905,70017.140715,70017,2333.9,2335.9384044999997,70078.152135,70078,2335.9333333333334,3.288248629309237,1,1,3,1,2.0,2.0,b'NB_26_LongA.png',2339.226653129309,70176.79959387927,70176,2339.2
28,2339.2430139999997,70177.29041999999,70177,2339.233333333333,2339.77636725,70193.2910175,70193,2339.766666666667,2341.80988675,70254.29660249999,70254,2341.8,2.2084345136536285,1,1,3,1,2.0,2.0,b'NB_21_LongA.png',2344.0183212636534,70320.5496379096,70320,2344.0
29,2344.0288984999997,70320.86695499999,70320,2344.0,2344.56211975,70336.8635925,70336,2344.5333333333333,2346.5957317499997,70397.87195249999,70397,2346.5666666666666,2.197817495907657,2,2,6,2,2.0,2.0,b'SB_57_LongA.png',2348.7935492459073,70463.80647737722,70463,2348.766666666667
30,2348.8083604999997,70464.25081499999,70464,2348.8,2349.408419,70482.25257,70482,2349.4,2351.441876,70543.25628,70543,2351.4333333333334,1.306729857227765,3,2,6,2,2.0,2.0,b'HB_58_ShortA.png',2352.7486058572276,70582.45817571683,70582,2352.733333333333
31,2352.7595305,70582.785915,70582,2352.733333333333,2353.35934175,70600.7802525,70600,2353.3333333333335,2355.3929195,70661.787585,70661,2355.366666666667,1.4433807444293052,1,2,6,2,2.0,2.0,b'NB_6_ShortA.png',2356.8363002444294,70705.08900733288,70705,2356.8333333333335
32,2356.850637,70705.51911,70705,2356.8333333333335,2357.40047925,70722.0143775,70722,2357.4,2359.4340362499997,70783.02108749999,70783,2359.4333333333334,2.259897358948365,3,1,3,1,2.0,2.0,b'HB_46_ShortA.png',2361.693933608948,70850.81800826844,70850,2361.6666666666665
33,2361.71010625,70851.3031875,70851,2361.7,2362.260013,70867.80039,70867,2362.233333333333,2364.29364425,70928.8093275,70928,2364.266666666667,1.7328516291454434,2,2,6,2,2.0,2.0,b'SB_20_ShortA.png',2366.0264958791454,70980.79487637436,70980,2366.0
34,2366.034819,70981.04457,70981,2366.0333333333333,2366.53478,70996.0434,70996,2366.5333333333333,2368.56839325,71057.0517975,71057,2368.5666666666666,1.79621822363697,1,1,3,1,2.0,2.0,b'NB_13_ShortA.png',2370.364611473637,71110.9383442091,71110,2370.3333333333335
35,2370.3749264999997,71111.24779499999,71111,2370.366666666667,2370.9249984999997,71127.74995499999,71127,2370.9,2372.9582729999997,71188.74819,71188,2372.9333333333334,1.8036164100049064,3,2,3,1,1.0,2.0,b'HB_48_LongA.png',2374.7618894100046,71242.85668230015,71242,2374.733333333333
36,2374.775493,71243.26479,71243,2374.766666666667,2375.292007,71258.76021000001,71258,2375.266666666667,2377.32553675,71319.7661025,71319,2377.3,1.8599754545139149,2,2,6,2,2.0,2.0,b'SB_2_LongA.png',2379.185512204514,71375.56536613542,71375,2379.1666666666665
37,2379.1964485,71375.893455,71375,2379.1666666666665,2379.67978775,71390.3936325,71390,2379.6666666666665,2381.71341075,71451.4023225,71451,2381.7,2.2913615701254457,2,2,6,2,2.0,2.0,b'SB_52_LongA.png',2384.0047723201255,71520.14316960376,71520,2384.0
38,2384.0071635,71520.214905,71520,2384.0,2384.5237285,71535.711855,71535,2384.5,2386.5572819999998,71596.71845999999,71596,2386.5333333333333,2.4346657291753218,2,1,3,1,2.0,2.0,b'SB_42_ShortA.png',2388.991947729175,71669.75843187525,71669,2388.9666666666667
39,2389.007478,71670.22434,71670,2389.0,2389.490772,71684.72316000001,71684,2389.4666666666667,2391.5243044999997,71745.72913499999,71745,2391.5,2.5683550803223625,3,2,6,2,2.0,2.0,b'HB_37_LongA.png',2394.092659580322,71822.77978740966,71822,2394.0666666666666
40,2394.0962652499998,71822.88795749999,71822,2394.0666666666666,2394.67957975,71840.3873925,71840,2394.6666666666665,2396.7131515,71901.394545,71901,2396.7,2.458383086253889,2,1,3,1,2.0,2.0,b'SB_47_ShortA.png',2399.171534586254,71975.14603758762,71975,2399.1666666666665
41,2399.17858825,71975.3576475,71975,2399.1666666666665,2399.76184225,71992.8552675,71992,2399.733333333333,2401.7952235,72053.856705,72053,2401.766666666667,1.7395150267984718,3,1,6,2,1.0,2.0,b'HB_10_LongA.png',2403.5347385267983,72106.04215580395,72106,2403.5333333333333
42,2403.5457725,72106.373175,72106,2403.5333333333333,2404.12905,72123.8715,72123,2404.1,2406.1627135,72184.881405,72184,2406.133333333333,3.056520462036133,1,1,3,1,2.0,2.0,b'NB_1_ShortA.png',2409.219233962036,72276.57701886108,72276,2409.2
43,2409.2336215,72277.008645,72277,2409.233333333333,2409.716821,72291.50463,72291,2409.7,2411.7505754999997,72352.51726499999,72352,2411.733333333333,1.8730529437307268,1,2,6,2,2.0,2.0,b'NB_18_LongA.png',2413.6236284437305,72408.70885331191,72408,2413.6
44,2413.6285755,72408.857265,72408,2413.6,2414.211746,72426.35238,72426,2414.2,2416.245332,72487.35996,72487,2416.233333333333,3.325344979763031,1,1,3,1,2.0,2.0,b'NB_10_LongA.png',2419.570676979763,72587.12030939289,72587,2419.5666666666666
45,2419.58022,72587.40659999999,72587,2419.5666666666666,2420.16339475,72604.9018425,72604,2420.133333333333,2422.1970002499997,72665.91000749999,72665,2422.1666666666665,2.416928289574571,2,2,6,2,2.0,2.0,b'SB_5_LongA.png',2424.6139285395743,72738.41785618722,72738,2424.6
46,2424.62761225,72738.8283675,72738,2424.6,2425.17753825,72755.3261475,72755,2425.1666666666665,2427.21107125,72816.3321375,72816,2427.2,1.7447116238763556,1,2,6,2,2.0,2.0,b'NB_23_LongA.png',2428.955782873876,72868.67348621628,72868,2428.9333333333334
47,2428.9585775,72868.757325,72868,2428.9333333333334,2429.4586289999997,72883.75886999999,72883,2429.4333333333334,2431.49230425,72944.7691275,72944,2431.4666666666667,1.9404023016104475,1,1,3,1,2.0,2.0,b'NB_1_LongA.png',2433.4327065516104,73002.98119654831,73002,2433.4
48,2433.43910075,73003.17302249999,73003,2433.4333333333334,2433.97250525,73019.1751575,73019,2433.9666666666667,2436.00610275,73080.1830825,73080,2436.0,2.668298168689944,3,2,6,2,2.0,2.0,b'HB_25_ShortA.png',2438.67440091869,73160.2320275607,73160,2438.6666666666665
49,2438.6902615,73160.707845,73160,2438.6666666666665,2439.2569025,73177.707075,73177,2439.233333333333,2441.290659,73238.71977,73238,2441.266666666667,2.328985679196194,1,2,6,2,2.0,2.0,b'NB_16_LongA.png',2443.619644679196,73308.58934037588,73308,2443.6
50,2443.6298994999997,73308.896985,73308,2443.6,2444.1631884999997,73324.89565499999,73324,2444.133333333333,2446.1967692499998,73385.9030775,73385,2446.1666666666665,2.1890980059979483,3,1,6,2,1.0,2.0,b'HB_24_LongA.png',2448.3858672559977,73451.57601767994,73451,2448.366666666667
51,2448.3933482499997,73451.80044749999,73451,2448.366666666667,2448.9432979999997,73468.29894,73468,2448.9333333333334,2450.9770504999997,73529.311515,73529,2450.9666666666667,2.6051770272897556,3,1,3,1,2.0,2.0,b'HB_32_LongA.png',2453.5822275272894,73607.46682581869,73607,2453.5666666666666
52,2453.59816025,73607.9448075,73607,2453.5666666666666,2454.16468975,73624.9406925,73624,2454.133333333333,2456.1981339999998,73685.94402,73685,2456.1666666666665,1.8390807212563232,2,2,6,2,2.0,2.0,b'SB_31_ShortA.png',2458.037214721256,73741.11644163769,73741,2458.0333333333333
53,2458.0500615,73741.501845,73741,2458.0333333333333,2458.56676575,73757.00297249999,73757,2458.5666666666666,2460.6003474999998,73818.01042499999,73818,2460.6,2.8617229267256334,1,1,3,1,2.0,2.0,b'NB_29_ShortA.png',2463.4620704267254,73903.86211280175,73903,2463.4333333333334
54,2463.4731644999997,73904.19493499999,73904,2463.4666666666667,2463.9564514999997,73918.69354499999,73918,2463.9333333333334,2465.9901127499998,73979.7033825,73979,2465.9666666666667,2.358545695664361,3,2,6,2,2.0,2.0,b'HB_34_LongA.png',2468.348658445664,74050.45975336993,74050,2468.3333333333335
55,2468.3509639999997,74050.52892,74050,2468.3333333333335,2468.9342174999997,74068.026525,74068,2468.9333333333334,2470.96776,74129.0328,74129,2470.9666666666667,3.1586997457779944,3,1,3,1,2.0,2.0,b'HB_43_LongA.png',2474.126459745778,74223.79379237334,74223,2474.1
56,2474.1331535,74223.994605,74223,2474.1,2474.64979525,74239.4938575,74239,2474.633333333333,2476.68341675,74300.5025025,74300,2476.6666666666665,3.085282963118516,1,2,6,2,2.0,2.0,b'NB_22_ShortA.png',2479.7686997131186,74393.06099139356,74393,2479.766666666667
57,2479.7763649999997,74393.29095,74393,2479.766666666667,2480.35963125,74410.7889375,74410,2480.3333333333335,2482.3932154999998,74471.79646499999,74471,2482.366666666667,1.8764132721116766,3,1,3,1,2.0,2.0,b'HB_28_ShortA.png',2484.2696287721114,74528.08886316334,74528,2484.266666666667
58,2484.2776222499997,74528.3286675,74528,2484.266666666667,2484.8442655,74545.327965,74545,2484.8333333333335,2486.87774725,74606.3324175,74606,2486.866666666667,2.485779130831361,2,2,6,2,2.0,2.0,b'SB_17_ShortA.png',2489.3635263808314,74680.90579142494,74680,2489.3333333333335
59,2489.37045,74681.11349999999,74681,2489.366666666667,2489.9703502499997,74699.1105075,74699,2489.9666666666667,2492.003745,74760.11235,74760,2492.0,1.8579894894501194,1,1,3,1,2.0,2.0,b'NB_16_ShortA.png',2493.86173448945,74815.8520346835,74815,2493.8333333333335
60,2493.8659475,74815.978425,74815,2493.8333333333335,2494.3492575,74830.477725,74830,2494.3333333333335,2496.382639,74891.47916999999,74891,2496.366666666667,2.0305797113105655,2,1,3,1,2.0,2.0,b'SB_11_LongA.png',2498.4132187113105,74952.39656133931,74952,2498.4
61,2498.42475375,74952.7426125,74952,2498.4,2498.92476525,74967.7429575,74967,2498.9,2500.9582674999997,75028.748025,75028,2500.9333333333334,2.2769464997109026,3,1,3,1,2.0,2.0,b'HB_41_ShortA.png',2503.2352139997106,75097.05641999132,75097,2503.233333333333
62,2503.2527124999997,75097.581375,75097,2503.233333333333,2503.7693034999998,75113.079105,75113,2503.766666666667,2505.8027755,75174.083265,75174,2505.8,3.3000796685228124,1,2,6,2,2.0,2.0,b'NB_30_LongA.png',2509.1028551685226,75273.08565505568,75273,2509.1
63,2509.11042825,75273.3128475,75273,2509.1,2509.593791,75287.81373,75287,2509.5666666666666,2511.6272525,75348.817575,75348,2511.6,1.8212139625102282,1,2,3,1,1.0,2.0,b'NB_25_LongA.png',2513.44846646251,75403.4539938753,75403,2513.4333333333334
64,2513.4571794999997,75403.71538499999,75403,2513.4333333333334,2514.02384075,75420.7152225,75420,2514.0,2516.0572429999997,75481.71728999999,75481,2516.0333333333333,1.6962258325656876,3,2,6,2,2.0,2.0,b'HB_2_ShortA.png',2517.7534688325654,75532.60406497696,75532,2517.733333333333
65,2517.76157775,75532.8473325,75532,2517.733333333333,2518.2449079999997,75547.34723999999,75547,2518.233333333333,2520.27851875,75608.3555625,75608,2520.266666666667,3.0629588385345414,1,2,3,1,1.0,2.0,b'NB_19_ShortA.png',2523.3414775885344,75700.24432765604,75700,2523.3333333333335
66,2523.3559567499997,75700.6787025,75700,2523.3333333333335,2523.90586675,75717.1760025,75717,2523.9,2525.939323,75778.17969,75778,2525.9333333333334,1.8301804414950311,1,1,3,1,2.0,2.0,b'NB_24_LongA.png',2527.769503441495,75833.08510324486,75833,2527.766666666667
67,2527.78441575,75833.5324725,75833,2527.766666666667,2528.36774325,75851.0322975,75851,2528.366666666667,2530.4013407499997,75912.04022249999,75912,2530.4,2.1000672496156767,1,1,3,1,2.0,2.0,b'NB_12_ShortA.png',2532.5014079996154,75975.04223998846,75975,2532.5
68,2532.5183214999997,75975.54964499999,75975,2532.5,2533.03487525,75991.0462575,75991,2533.0333333333333,2535.0683612499997,76052.05083749999,76052,2535.0666666666666,2.105859383707866,2,2,6,2,2.0,2.0,b'SB_32_ShortA.png',2537.1742206337076,76115.22661901123,76115,2537.1666666666665
69,2537.18823875,76115.6471625,76115,2537.1666666666665,2537.671385,76130.14155,76130,2537.6666666666665,2539.7048529999997,76191.14558999999,76191,2539.7,0.5306479799328372,1,2,3,1,1.0,2.0,b'NB_20_ShortA.png',2540.2355009799326,76207.06502939797,76207,2540.233333333333
70,2540.2533587499997,76207.60076249999,76207,2540.233333333333,2540.75321725,76222.5965175,76222,2540.733333333333,2542.78658925,76283.5976775,76283,2542.766666666667,2.336479406338185,1,2,6,2,2.0,2.0,b'NB_6_LongA.png',2545.123068656338,76353.69205969015,76353,2545.1
71,2545.1405367499997,76354.2161025,76354,2545.133333333333,2545.6738775,76370.216325,76370,2545.6666666666665,2547.70729975,76431.2189925,76431,2547.7,1.2945307390764356,2,1,3,1,2.0,2.0,b'SB_54_LongA.png',2549.0018304890764,76470.05491467229,76470,2549.0
72,2549.011869,76470.35607,76470,2549.0,2549.5452955,76486.358865,76486,2549.5333333333333,2551.57867975,76547.3603925,76547,2551.5666666666666,1.6001190738752484,3,2,3,1,1.0,2.0,b'HB_5_LongA.png',2553.1787988238752,76595.36396471626,76595,2553.1666666666665
73,2553.196057,76595.88171,76595,2553.1666666666665,2553.76270325,76612.8810975,76612,2553.733333333333,2555.796315,76673.88945,76673,2555.766666666667,1.9614364178851247,1,1,6,2,1.0,2.0,b'NB_19_LongA.png',2557.757751417885,76732.73254253656,76732,2557.733333333333
74,2557.766613,76732.99839,76732,2557.733333333333,2558.266529,76747.99587,76747,2558.233333333333,2560.300213,76809.00639,76809,2560.3,2.6638818562496454,1,2,3,1,1.0,2.0,b'NB_4_ShortA.png',2562.9640948562496,76888.92284568748,76888,2562.9333333333334
75,2562.96663375,76888.99901249999,76888,2562.9333333333334,2563.48327425,76904.4982275,76904,2563.4666666666667,2565.51679225,76965.5037675,76965,2565.5,1.7988735424587503,2,1,3,1,2.0,2.0,b'SB_48_LongA.png',2567.3156657924587,77019.46997377377,77019,2567.3
76,2567.3252945,77019.758835,77019,2567.3,2567.8918224999998,77036.75467499999,77036,2567.866666666667,2569.92546825,77097.7640475,77097,2569.9,3.1674678729614243,1,1,3,1,2.0,2.0,b'NB_20_LongA.png',2573.0929361229614,77192.78808368884,77192,2573.0666666666666
77,2573.1077634999997,77193.232905,77193,2573.1,2573.67440175,77210.2320525,77210,2573.6666666666665,2575.708001,77271.24003,77271,2575.7,1.47280853043776,2,1,6,2,1.0,2.0,b'SB_29_LongA.png',2577.1808095304377,77315.42428591313,77315,2577.1666666666665
78,2577.183835,77315.51504999999,77315,2577.1666666666665,2577.7504315,77332.51294500001,77332,2577.733333333333,2579.784084,77393.52252,77393,2579.766666666667,2.4372470231028274,1,2,3,1,1.0,2.0,b'NB_25_ShortA.png',2582.2213310231027,77466.63993069308,77466,2582.2
79,2582.2333005,77466.99901500001,77466,2582.2,2582.74997175,77482.4991525,77482,2582.733333333333,2584.78346,77543.5038,77543,2584.766666666667,2.089347120723687,2,1,3,1,2.0,2.0,b'SB_28_ShortA.png',2586.872807120724,77606.18421362172,77606,2586.866666666667
80,2586.87840075,77606.3520225,77606,2586.866666666667,2587.4117385,77622.352155,77622,2587.4,2589.4454315,77683.362945,77683,2589.4333333333334,3.120038864086382,3,2,6,2,2.0,2.0,b'HB_60_LongA.png',2592.565470364086,77776.96411092259,77776,2592.5333333333333
81,2592.570052,77777.10156,77777,2592.5666666666666,2593.1366922499997,77794.10076749999,77794,2593.133333333333,2595.170271,77855.10813,77855,2595.1666666666665,1.8963761643972248,1,1,6,2,1.0,2.0,b'NB_9_ShortA.png',2597.066647164397,77911.99941493191,77911,2597.0333333333333
82,2597.07885325,77912.3655975,77912,2597.0666666666666,2597.6454135,77929.36240499999,77929,2597.633333333333,2599.6788579999998,77990.36574,77990,2599.6666666666665,2.2706119562499225,3,1,6,2,1.0,2.0,b'HB_49_ShortA.png',2601.9494699562497,78058.48409868749,78058,2601.9333333333334
83,2601.95441475,78058.6324425,78058,2601.9333333333334,2602.48767575,78074.6302725,78074,2602.4666666666667,2604.52127425,78135.63822749999,78135,2604.5,1.8499193374300376,2,1,3,1,2.0,2.0,b'SB_43_LongA.png',2606.37119358743,78191.1358076229,78191,2606.366666666667
84,2606.3895705,78191.687115,78191,2606.366666666667,2606.90625025,78207.1875075,78207,2606.9,2608.93972425,78268.1917275,78268,2608.9333333333334,3.3489461712306365,1,2,6,2,2.0,2.0,b'NB_11_LongA.png',2612.2886704212306,78368.66011263692,78368,2612.266666666667
85,2612.302247,78369.06741,78369,2612.3,2612.7855695,78383.56708499999,78383,2612.766666666667,2614.81916,78444.5748,78444,2614.8,0.9867248527007177,1,1,6,2,1.0,2.0,b'NB_11_ShortA.png',2615.8058848527007,78474.17654558102,78474,2615.8
86,2615.8094495,78474.283485,78474,2615.8,2616.3261625,78489.784875,78489,2616.3,2618.3598134999997,78550.794405,78550,2618.3333333333335,2.480884787859395,3,1,6,2,1.0,2.0,b'HB_6_LongA.png',2620.840698287859,78625.22094863578,78625,2620.8333333333335
87,2620.8497305,78625.491915,78625,2620.8333333333335,2621.39958575,78641.9875725,78641,2621.366666666667,2623.4332475,78702.99742500001,78702,2623.4,2.116264697862789,3,1,3,1,2.0,2.0,b'HB_56_ShortA.png',2625.549512197863,78766.48536593589,78766,2625.5333333333333
88,2625.5539335,78766.618005,78766,2625.5333333333333,2626.0539285,78781.617855,78781,2626.0333333333333,2628.087482,78842.62445999999,78842,2628.0666666666666,2.047488598502241,2,1,3,1,2.0,2.0,b'SB_15_ShortA.png',2630.134970598502,78904.04911795506,78904,2630.133333333333
89,2630.1491705,78904.475115,78904,2630.133333333333,2630.6657025,78919.971075,78919,2630.633333333333,2632.6992674999997,78980.97802499999,78980,2632.6666666666665,1.7825362427392974,1,1,3,1,2.0,2.0,b'NB_14_LongA.png',2634.481803742739,79034.45411228217,79034,2634.4666666666667
90,2634.48814175,79034.6442525,79034,2634.4666666666667,2635.0214265,79050.64279499999,79050,2635.0,2637.055081,79111.65243,79111,2637.0333333333333,2.3427436015335843,2,1,6,2,1.0,2.0,b'SB_36_ShortA.png',2639.3978246015336,79181.93473804601,79181,2639.366666666667
91,2639.40354475,79182.1063425,79182,2639.4,2639.90354,79197.1062,79197,2639.9,2641.9371094999997,79258.11328499998,79258,2641.9333333333334,1.6617117400746793,2,1,3,1,2.0,2.0,b'SB_58_ShortA.png',2643.5988212400744,79307.96463720223,79307,2643.5666666666666
92,2643.61574425,79308.4723275,79308,2643.6,2644.09918025,79322.9754075,79322,2644.0666666666666,2646.1324015,79383.972045,79383,2646.1,3.0797760915011168,1,2,6,2,2.0,2.0,b'NB_24_ShortA.png',2649.212177591501,79476.36532774504,79476,2649.2
93,2649.21793325,79476.5379975,79476,2649.2,2649.7511925,79492.535775,79492,2649.733333333333,2651.7847724999997,79553.54317499998,79553,2651.766666666667,1.6353154034586623,1,2,7,2,2.0,3.0,b'NB_7_LongA.png',2653.4200879034584,79602.60263710374,79602,2653.4
94,2653.4362927499997,79603.0887825,79603,2653.4333333333334,2654.00282325,79620.0846975,79620,2654.0,2656.03652125,79681.0956375,79681,2656.0333333333333,2.601660917280242,3,2,3,1,1.0,2.0,b'HB_1_LongA.png',2658.6381821672803,79759.1454650184,79759,2658.633333333333
95,2658.65050175,79759.51505249999,79759,2658.633333333333,2659.183782,79775.51346,79775,2659.1666666666665,2661.2174095,79836.522285,79836,2661.2,2.8532474791863933,1,1,2,1,2.0,3.0,b'NB_30_ShortA.png',2664.0706569791864,79922.11970937559,79922,2664.0666666666666
96,2664.07992125,79922.3976375,79922,2664.0666666666666,2664.59650575,79937.8951725,79937,2664.5666666666666,2666.6299422499997,79998.89826749999,79998,2666.6,2.3452043447177857,3,2,3,1,1.0,2.0,b'HB_11_LongA.png',2668.9751465947174,80069.25439784152,80069,2668.9666666666667
97,2668.99325375,80069.7976125,80069,2668.9666666666667,2669.5598837499997,80086.79651249999,80086,2669.5333333333333,2671.6226672499997,80148.6800175,80148,2671.6,2.5409583221189678,2,1,3,1,2.0,2.0,b'SB_4_LongA.png',2674.1636255721187,80224.90876716356,80224,2674.133333333333
98,2674.1734779999997,80225.20434,80225,2674.1666666666665,2674.6901224999997,80240.703675,80240,2674.6666666666665,2676.7236875,80301.71062499999,80301,2676.7,2.6116344786714762,2,1,3,1,2.0,2.0,b'SB_45_LongA.png',2679.3353219786713,80380.05965936014,80380,2679.3333333333335
99,2679.349909,80380.49727,80380,2679.3333333333335,2679.8498302499997,80395.49490749999,80395,2679.8333333333335,2681.8832844999997,80456.49853499999,80456,2681.866666666667,1.5392376235686243,1,1,7,2,1.0,3.0,b'NB_28_ShortA.png',2683.4225221235683,80502.67566370705,80502,2683.4
100,2683.4352652499997,80503.05795749999,80503,2683.4333333333334,2683.968445,80519.05335,80519,2683.9666666666667,2686.00207475,80580.06224249999,80580,2686.0,2.518876041751355,3,1,3,1,2.0,2.0,b'HB_55_ShortA.png',2688.520950791751,80655.62852375253,80655,2688.5
101,2688.5309285,80655.927855,80655,2688.5,2689.03103175,80670.9309525,80670,2689.0,2691.06451875,80731.9355625,80731,2691.0333333333333,2.0367623945930973,1,2,7,2,2.0,3.0,b'NB_4_LongA.png',2693.101281144593,80793.0384343378,80793,2693.1
102,2693.11527675,80793.45830249999,80793,2693.1,2693.6652827499997,80809.95848249999,80809,2693.633333333333,2695.69893825,80870.9681475,80870,2695.6666666666665,2.1608739031944424,2,2,6,2,2.0,2.0,b'SB_41_ShortA.png',2697.8598121531945,80935.79436459583,80935,2697.8333333333335
103,2697.870689,80936.12066999999,80936,2697.866666666667,2698.38732475,80951.6197425,80951,2698.366666666667,2700.4208962499997,81012.6268875,81012,2700.4,1.9697230053134263,3,2,3,1,1.0,2.0,b'HB_36_ShortA.png',2702.390619255313,81071.7185776594,81071,2702.366666666667
104,2702.39822125,81071.9466375,81071,2702.366666666667,2702.98149375,81089.4448125,81089,2702.9666666666667,2705.01493975,81150.4481925,81150,2705.0,1.7278006882406771,1,2,2,1,1.0,3.0,b'NB_17_ShortA.png',2706.7427404382406,81202.28221314722,81202,2706.733333333333
105,2706.7567455,81202.70236499999,81202,2706.733333333333,2707.28991625,81218.6974875,81218,2707.266666666667,2709.3234445,81279.703335,81279,2709.3,2.152757541043684,2,2,2,1,1.0,3.0,b'SB_21_ShortA.png',2711.4762020410435,81344.28606123131,81344,2711.4666666666667
106,2711.48812425,81344.6437275,81344,2711.4666666666667,2712.0547349999997,81361.64205,81361,2712.0333333333333,2714.08827225,81422.6481675,81422,2714.0666666666666,2.2696064248448238,3,2,3,1,1.0,2.0,b'HB_50_ShortA.png',2716.357878674845,81490.73636024534,81490,2716.3333333333335
107,2716.3700175,81491.100525,81491,2716.366666666667,2716.8867235,81506.601705,81506,2716.866666666667,2718.9202975,81567.608925,81567,2718.9,1.658239707350731,1,2,7,2,2.0,3.0,b'NB_26_ShortA.png',2720.5785372073506,81617.35611622052,81617,2720.5666666666666
108,2720.59426725,81617.8280175,81617,2720.5666666666666,2721.0943282499998,81632.82984749999,81632,2721.0666666666666,2723.12792525,81693.83775749999,81693,2723.1,3.21231825905852,3,1,3,1,2.0,2.0,b'HB_51_ShortA.png',2726.3402435090584,81790.20730527175,81790,2726.3333333333335
109,2726.3485665,81790.456995,81790,2726.3333333333335,2726.8652524999998,81805.957575,81805,2726.8333333333335,2728.8987195,81866.961585,81866,2728.866666666667,2.163415626506321,2,2,7,2,2.0,3.0,b'SB_55_LongA.png',2731.0621351265063,81931.86405379519,81931,2731.0333333333333
110,2731.077234,81932.31702,81932,2731.0666666666666,2731.5937492499997,81947.81247749999,81947,2731.5666666666666,2733.62735175,82008.8205525,82008,2733.6,1.8544863846618682,1,2,2,1,1.0,3.0,b'NB_8_LongA.png',2735.4818381346618,82064.45514403985,82064,2735.4666666666667
111,2735.48672175,82064.6016525,82064,2735.4666666666667,2736.0200234999998,82080.60070499999,82080,2736.0,2738.05345325,82141.6035975,82141,2738.0333333333333,2.481372868642211,2,1,2,1,2.0,3.0,b'SB_35_ShortA.png',2740.5348261186423,82216.04478355926,82216,2740.5333333333333
112,2740.54070625,82216.22118749999,82216,2740.5333333333333,2741.02402275,82230.72068249999,82230,2741.0,2743.0574585,82291.723755,82291,2743.0333333333333,2.8297801909502596,3,1,3,1,2.0,2.0,b'HB_14_ShortA.png',2745.88723869095,82376.6171607285,82376,2745.866666666667
113,2745.89536275,82376.8608825,82376,2745.866666666667,2746.42860325,82392.8580975,82392,2746.4,2748.46229,82453.86869999999,82453,2748.4333333333334,2.2693207236006856,2,1,7,2,1.0,3.0,b'SB_56_ShortA.png',2750.7316107236006,82521.94832170801,82521,2750.7
114,2750.7470184999997,82522.410555,82522,2750.733333333333,2751.2468974999997,82537.40692499999,82537,2751.233333333333,2753.28049925,82598.4149775,82598,2753.266666666667,2.777621836052276,1,2,7,2,2.0,3.0,b'NB_21_ShortA.png',2756.0581210860523,82681.74363258157,82681,2756.0333333333333
115,2756.0697615,82682.09284499999,82682,2756.0666666666666,2756.6198815,82698.59644499999,82698,2756.6,2758.6532995,82759.59898499999,82759,2758.633333333333,0.8928740571718663,1,2,7,2,2.0,3.0,b'NB_14_ShortA.png',2759.5461735571716,82786.38520671515,82786,2759.5333333333333
116,2759.552756,82786.58268,82786,2759.5333333333333,2760.036196,82801.08588,82801,2760.0333333333333,2762.0695162499997,82862.0854875,82862,2762.0666666666666,2.381198543123901,1,2,7,2,2.0,3.0,b'NB_8_ShortA.png',2764.4507147931236,82933.52144379371,82933,2764.4333333333334
117,2764.4587914999997,82933.76374499999,82933,2764.4333333333334,2764.9587695,82948.763085,82948,2764.9333333333334,2766.99226075,83009.7678225,83009,2766.9666666666667,2.544358247658238,3,1,3,1,2.0,2.0,b'HB_18_LongA.png',2769.536618997658,83086.09856992975,83086,2769.5333333333333
118,2769.545759,83086.37277,83086,2769.5333333333333,2770.0622544999997,83101.86763499999,83101,2770.0333333333333,2772.09581025,83162.8743075,83162,2772.0666666666666,1.998647239524871,3,1,3,1,2.0,2.0,b'HB_17_ShortA.png',2774.0944574895248,83222.83372468574,83222,2774.0666666666666
119,2774.09776225,83222.9328675,83222,2774.0666666666666,2774.5977285,83237.931855,83237,2774.5666666666666,2776.63135575,83298.9406725,83298,2776.6,2.5665856058476493,3,1,3,1,2.0,2.0,b'HB_59_ShortA.png',2779.1979413558474,83375.93824067543,83375,2779.1666666666665
120,2779.21668025,83376.5004075,83376,2779.2,2779.79994175,83393.9982525,83393,2779.766666666667,2781.83356475,83455.0069425,83455,2781.8333333333335,1.1249823624966666,1,2,7,2,2.0,3.0,b'NB_5_ShortA.png',2782.9585471124965,83488.7564133749,83488,2782.9333333333334
121,2782.9647287499997,83488.9418625,83488,2782.9333333333334,2783.48152875,83504.4458625,83504,2783.4666666666667,2785.5148572499997,83565.4457175,83565,2785.5,1.9789765438763425,1,1,7,2,1.0,3.0,b'NB_2_LongA.png',2787.493833793876,83624.81501381629,83624,2787.4666666666667
122,2787.5115124999998,83625.34537499999,83625,2787.5,2788.0780302499998,83642.3409075,83642,2788.0666666666666,2790.11160825,83703.34824749999,83703,2790.1,1.3507231350522488,3,1,6,2,1.0,2.0,b'HB_40_ShortA.png',2791.462331385052,83743.86994155156,83743,2791.4333333333334
123,2791.4755525,83744.266575,83744,2791.4666666666667,2791.992155,83759.76465,83759,2791.9666666666667,2794.02564075,83820.7692225,83820,2794.0,2.9514814836438745,3,1,3,1,2.0,2.0,b'HB_7_ShortA.png',2796.977122233644,83909.31366700932,83909,2796.9666666666667
124,2796.98695625,83909.60868749999,83909,2796.9666666666667,2797.53686625,83926.1059875,83926,2797.5333333333333,2799.57038975,83987.1116925,83987,2799.5666666666666,2.299664656049572,3,2,3,1,1.0,2.0,b'HB_38_LongA.png',2801.8700544060493,84056.10163218148,84056,2801.866666666667
125,2801.8817704999997,84056.453115,84056,2801.866666666667,2802.4149629999997,84072.44888999999,84072,2802.4,2804.44858325,84133.4574975,84133,2804.4333333333334,1.924045444582589,2,1,7,2,1.0,3.0,b'SB_19_ShortA.png',2806.3726286945825,84191.17886083748,84191,2806.366666666667
126,2806.38290675,84191.48720250001,84191,2806.366666666667,2806.9161715,84207.485145,84207,2806.9,2808.9498495,84268.49548499999,84268,2808.9333333333334,2.1409448564518243,1,1,7,2,1.0,3.0,b'NB_7_ShortA.png',2811.0907943564516,84332.72383069355,84332,2811.0666666666666
127,2811.09929175,84332.9787525,84332,2811.0666666666666,2811.682655,84350.47965000001,84350,2811.6666666666665,2813.716156,84411.48468,84411,2813.7,2.464120390592143,3,2,3,1,1.0,2.0,b'HB_9_LongA.png',2816.180276390592,84485.40829171776,84485,2816.1666666666665
128,2816.188775,84485.66325,84485,2816.1666666666665,2816.672048,84500.16144,84500,2816.6666666666665,2818.7055757499998,84561.1672725,84561,2818.7,3.5393593517364934,3,1,3,1,2.0,2.0,b'HB_35_ShortA.png',2822.2449351017362,84667.34805305209,84667,2822.233333333333
129,2822.247675,84667.43025,84667,2822.233333333333,2822.7308707499997,84681.9261225,84681,2822.7,2824.76432875,84742.9298625,84742,2824.733333333333,3.1348073652479798,1,1,7,2,1.0,3.0,b'NB_2_ShortA.png',2827.899136115248,84836.97408345743,84836,2827.866666666667
130,2827.9015725,84837.047175,84837,2827.9,2828.41831,84852.5493,84852,2828.4,2830.45181225,84913.5543675,84913,2830.4333333333334,1.9059987415093929,2,1,2,1,2.0,3.0,b'SB_30_ShortA.png',2832.3578109915093,84970.73432974528,84970,2832.3333333333335
131,2832.3667625,84971.00287499999,84971,2832.366666666667,2832.8667327499998,84986.00198249999,84986,2832.866666666667,2834.9004255,85047.01276499999,85047,2834.9,1.366660058614798,1,1,2,1,2.0,3.0,b'NB_28_LongA.png',2836.267085558615,85088.01256675844,85088,2836.266666666667
132,2836.2854454999997,85088.563365,85088,2836.266666666667,2836.868661,85106.05983,85106,2836.866666666667,2838.90228275,85167.06848249999,85167,2838.9,2.012202461832203,1,1,7,2,1.0,3.0,b'NB_10_ShortA.png',2840.914485211832,85227.43455635496,85227,2840.9
133,2840.9281045,85227.84313499999,85227,2840.9,2841.46136275,85243.8408825,85243,2841.4333333333334,2843.49489125,85304.8467375,85304,2843.4666666666667,2.0325862952740863,2,1,7,2,1.0,3.0,b'SB_16_shortA.png',2845.527477545274,85365.82432635823,85365,2845.5
134,2845.5344944999997,85366.034835,85366,2845.5333333333333,2846.03440925,85381.0322775,85381,2846.0333333333333,2848.0679379999997,85442.03813999999,85442,2848.0666666666666,1.9871496945852414,2,2,2,1,1.0,3.0,b'SB_38_LongA.png',2850.055087694585,85501.65263083755,85501,2850.0333333333333
135,2850.0705205,85502.115615,85502,2850.0666666666666,2850.5702495,85517.107485,85517,2850.5666666666666,2852.6038734999997,85578.116205,85578,2852.6,2.0520529134664685,2,2,2,1,1.0,3.0,b'SB_27_LongA.png',2854.655926413466,85639.67779240399,85639,2854.633333333333
136,2854.6604737499997,85639.81421249999,85639,2854.633333333333,2855.210447,85656.31341,85656,2855.2,2857.2440592499997,85717.3217775,85717,2857.233333333333,2.7385801133932546,3,2,3,1,1.0,2.0,b'HB_45_LongA.png',2859.982639363393,85799.47918090179,85799,2859.9666666666667
137,2859.986969,85799.60907,85799,2859.9666666666667,2860.52020425,85815.6061275,85815,2860.5,2862.55364125,85876.6092375,85876,2862.5333333333333,3.029476338881068,3,2,3,1,1.0,2.0,b'HB_53_LongA.png',2865.583117588881,85967.49352766643,85967,2865.5666666666666
138,2865.594988,85967.84964,85967,2865.5666666666666,2866.1782685,85985.348055,85985,2866.1666666666665,2868.2118135,86046.354405,86046,2868.2,2.2950350277824327,2,1,7,2,1.0,3.0,b'SB_10_LongA.png',2870.5068485277825,86115.20545583348,86115,2870.5
139,2870.5100435,86115.301305,86115,2870.5,2871.0601085,86131.80325499999,86131,2871.0333333333333,2873.093687,86192.81061,86192,2873.0666666666666,3.0574553104816005,1,2,2,1,1.0,3.0,b'NB_23_ShortA.png',2876.1511423104816,86284.53426931445,86284,2876.133333333333
140,2876.1542757499997,86284.62827249999,86284,2876.133333333333,2876.7043087499997,86301.12926249999,86301,2876.7,2878.7378089999997,86362.13427,86362,2878.733333333333,2.947682095109485,3,2,6,2,2.0,2.0,b'HB_52_ShortA.png',2881.6854910951092,86450.56473285328,86450,2881.6666666666665
141,2881.69520475,86450.8561425,86450,2881.6666666666665,2882.2285405,86466.85621499999,86466,2882.2,2884.262272,86527.86816,86527,2884.233333333333,1.983734933543019,2,2,7,2,2.0,3.0,b'SB_51_LongA.png',2886.246006933543,86587.38020800629,86587,2886.233333333333
142,2886.2622865,86587.86859499999,86587,2886.233333333333,2886.76232025,86602.8696075,86602,2886.733333333333,2888.7956405,86663.869215,86663,2888.766666666667,1.3011190784163773,1,2,7,2,2.0,3.0,b'NB_13_LongA.png',2890.0967595784164,86702.90278735249,86702,2890.0666666666666
143,2890.11363275,86703.4089825,86703,2890.1,2890.6969799999997,86720.90939999999,86720,2890.6666666666665,2892.73058525,86781.9175575,86781,2892.7,2.2642552285688,3,1,3,1,2.0,2.0,b'HB_12_LongA.png',2894.9948404785687,86849.84521435706,86849,2894.9666666666667
144,2895.000007,86850.00021,86850,2895.0,2895.5332692499996,86865.99807749999,86865,2895.5,2897.56686675,86927.0060025,86927,2897.5666666666666,2.413754412671551,3,1,3,1,2.0,2.0,b'HB_16_LongA.png',2899.9806211626715,86999.41863488014,86999,2899.9666666666667
145,2899.98283425,86999.4850275,86999,2899.9666666666667,2900.5328265,87015.984795,87015,2900.5,2902.566301,87076.98903,87076,2902.5333333333333,2.4669675561599433,3,1,3,1,2.0,2.0,b'HB_23_LongA.png',2905.03326855616,87150.9980566848,87150,2905.0
146,2905.04522675,87151.3568025,87151,2905.0333333333333,2905.56177975,87166.8533925,87166,2905.5333333333333,2907.662077,87229.86231,87229,2907.633333333333,2.588157983031124,2,1,7,2,1.0,3.0,b'SB_6_LongA.png',2910.250234983031,87307.50704949093,87307,2910.233333333333
147,2910.2575699999998,87307.72709999999,87307,2910.233333333333,2910.774224,87323.22671999999,87323,2910.766666666667,2912.80785225,87384.2355675,87384,2912.8,2.255570344859734,3,2,6,2,2.0,2.0,b'HB_27_ShortA.png',2915.0634225948597,87451.90267784579,87451,2915.0333333333333
148,2915.07452075,87452.2356225,87452,2915.0666666666666,2915.624464,87468.73392,87468,2915.6,2917.65798775,87529.7396325,87529,2917.633333333333,2.324929594877176,3,1,6,2,1.0,2.0,b'HB_39_ShortA.png',2919.982917344877,87599.48752034632,87599,2919.9666666666667
149,2919.9882395,87599.647185,87599,2919.9666666666667,2920.554948,87616.64844,87616,2920.5333333333333,2922.5884324999997,87677.65297499999,87677,2922.5666666666666,1.4805173743516207,3,1,3,1,2.0,2.0,b'HB_42_ShortA.png',2924.0689498743513,87722.06849623054,87722,2924.0666666666666
150,2924.0844712499998,87722.5341375,87722,2924.0666666666666,2924.6677255,87740.03176499999,87740,2924.6666666666665,2926.7013592499998,87801.04077749999,87801,2926.7,2.474789075087756,3,2,3,1,1.0,2.0,b'HB_13_LongA.png',2929.1761483250875,87875.28444975262,87875,2929.1666666666665
151,2929.17907875,87875.3723625,87875,2929.1666666666665,2929.7290572499996,87891.87171749999,87891,2929.7,2931.76260075,87952.8780225,87952,2931.733333333333,0.8279338806169108,1,1,2,1,2.0,3.0,b'NB_12_LongA.png',2932.5905346306167,87977.7160389185,87977,2932.5666666666666
152,2932.602782,87978.08346,87978,2932.6,2933.119319,87993.57957,87993,2933.1,2935.1528774999997,88054.586325,88054,2935.133333333333,2.365501487045549,3,2,3,1,1.0,2.0,b'HB_21_ShortA.png',2937.5183789870453,88125.55136961136,88125,2937.5
153,2937.525323,88125.75968999999,88125,2937.5,2938.1086864999997,88143.260595,88143,2938.1,2940.142406,88204.27218,88204,2940.133333333333,2.1104219993576407,2,1,2,1,2.0,3.0,b'SB_22_ShortA.png',2942.2528279993576,88267.58483998073,88267,2942.233333333333
154,2942.2707717499998,88268.12315249999,88268,2942.266666666667,2942.82072475,88284.62174249999,88284,2942.8,2944.8542697499997,88345.62809249999,88345,2944.8333333333335,2.624821998178959,1,1,2,1,2.0,3.0,b'NB_18_ShortA.png',2947.4790917481787,88424.37275244536,88424,2947.4666666666667
155,2947.48676975,88424.6030925,88424,2947.4666666666667,2948.0200704999997,88440.60211499999,88440,2948.0,2950.05364625,88501.6093875,88501,2950.0333333333333,2.3898275274550542,2,1,2,1,2.0,3.0,b'SB_13_LongA.png',2952.443473777455,88573.30421332364,88573,2952.4333333333334
156,2952.45621175,88573.6863525,88573,2952.4333333333334,2953.0561427499997,88591.68428249999,88591,2953.0333333333333,2955.0898562499997,88652.69568749999,88652,2955.0666666666666,1.6134023695485666,3,1,3,1,2.0,2.0,b'HB_54_ShortA.png',2956.7032586195483,88701.09775858645,88701,2956.7
157,2956.7124597499997,88701.37379249999,88701,2956.7,2957.2124479999998,88716.37344,88716,2957.2,2959.24589725,88777.37691749999,88777,2959.233333333333,2.150481393095106,3,2,6,2,2.0,2.0,b'HB_33_ShortA.png',2961.396378643095,88841.89135929284,88841,2961.366666666667
158,2961.40847925,88842.2543775,88842,2961.4,2962.0084405,88860.25321499999,88860,2962.0,2964.04197975,88921.2593925,88921,2964.0333333333333,2.0641536412294954,2,1,7,2,1.0,3.0,b'SB_12_ShortA.png',2966.1061333912294,88983.18400173688,88983,2966.1
159,2966.1162105,88983.486315,88983,2966.1,2966.6160812499998,88998.48243749999,88998,2966.6,2968.64966875,89059.4900625,89059,2968.633333333333,1.7558480465086177,3,1,6,2,1.0,2.0,b'HB_3_LongA.png',2970.4055167965084,89112.16550389526,89112,2970.4
160,2970.42394975,89112.71849249999,89112,2970.4,2970.990507,89129.71521,89129,2970.9666666666667,2973.0240839999997,89190.72252,89190,2973.0,2.51094699872192,2,2,7,2,2.0,3.0,b'SB_46_LongA.png',2975.5350309987216,89266.05092996165,89266,2975.5333333333333
161,2975.5437924999997,89266.31377499999,89266,2975.5333333333333,2976.0770442499997,89282.31132749999,89282,2976.0666666666666,2978.110675,89343.32024999999,89343,2978.1,2.534923688741401,3,2,3,1,1.0,2.0,b'HB_44_ShortA.png',2980.6455986887413,89419.36796066223,89419,2980.633333333333
162,2980.6602737499998,89419.8082125,89419,2980.633333333333,2981.17708125,89435.31243749999,89435,2981.1666666666665,2983.21035575,89496.3106725,89496,2983.2,1.9026963475625962,3,1,6,2,1.0,2.0,b'HB_57_ShortA.png',2985.1130520975626,89553.39156292687,89553,2985.1
163,2985.121444,89553.64332,89553,2985.1,2985.6379967499997,89569.1399025,89569,2985.633333333333,2987.67167625,89630.1502875,89630,2987.6666666666665,1.7062881846213713,2,1,7,2,1.0,3.0,b'SB_8_ShortA.png',2989.3779644346214,89681.33893303864,89681,2989.366666666667
164,2989.38777125,89681.6331375,89681,2989.366666666667,2989.9043014999997,89697.129045,89697,2989.9,2991.9379435,89758.138305,89758,2991.9333333333334,1.6031726552173495,2,1,2,1,2.0,3.0,b'SB_33_ShortA.png',2993.5411161552174,89806.23348465652,89806,2993.5333333333333
165,2993.54702275,89806.4106825,89806,2993.5333333333333,2994.0803225,89822.409675,89822,2994.0666666666666,2996.1138735,89883.416205,89883,2996.1,1.9314155920874327,2,1,7,2,1.0,3.0,b'SB_24_ShortA.png',2998.0452890920874,89941.35867276262,89941,2998.0333333333333
166,2998.0503135,89941.50940499999,89941,2998.0333333333333,2998.6002599999997,89958.00779999999,89958,2998.6,3000.6337194999996,90019.01158499999,90019,3000.633333333333,2.657133859815076,3,1,3,1,2.0,2.0,b'HB_19_ShortA.png',3003.2908533598147,90098.72560079444,90098,3003.266666666667
167,3003.30336675,90099.1010025,90099,3003.3,3003.81980225,90114.5940675,90114,3003.8,3005.8532465,90175.59739499999,90175,3005.8333333333335,2.3631818547146395,3,1,3,1,2.0,2.0,b'HB_26_LongA.png',3008.2164283547145,90246.49285064143,90246,3008.2
168,3008.2181607499997,90246.54482249999,90246,3008.2,3008.7348675,90262.04602499999,90262,3008.733333333333,3010.7684544999997,90323.05363499999,90323,3010.766666666667,1.8585774061502889,1,2,2,1,1.0,3.0,b'NB_3_LongA.png',3012.62703190615,90378.8109571845,90378,3012.6
169,3012.6343107499997,90379.02932249999,90379,3012.633333333333,3013.1341857499997,90394.02557249999,90394,3013.133333333333,3015.1676642499997,90455.02992749999,90455,3015.1666666666665,2.7003739938372746,3,1,3,1,2.0,2.0,b'HB_29_LongA.png',3017.868038243837,90536.0411473151,90536,3017.866666666667
170,3017.87693375,90536.3080125,90536,3017.866666666667,3018.4769345,90554.308035,90554,3018.4666666666667,3020.5105302499996,90615.31590749999,90615,3020.5,2.8186521307798102,3,1,3,1,2.0,2.0,b'HB_20_ShortA.png',3023.3291823807795,90699.87547142338,90699,3023.3
171,3023.37251875,90701.1755625,90701,3023.366666666667,3023.9557622499997,90718.67286749999,90718,3023.9333333333334,3025.98927775,90779.6783325,90779,3025.9666666666667,3.1580558868590742,2,2,7,2,2.0,3.0,b'SB_60_ShortA.png',3029.147333636859,90874.42000910577,90874,3029.133333333333
172,3029.151086,90874.53258,90874,3029.133333333333,3029.70098525,90891.0295575,90891,3029.7,3031.7346009999997,90952.03803,90952,3031.733333333333,2.9224668744718656,2,2,2,1,1.0,3.0,b'SB_49_ShortA.png',3034.6570678744715,91039.71203623415,91039,3034.633333333333
173,3034.6608644999997,91039.82593499999,91039,3034.633333333333,3035.2275,91056.825,91056,3035.2,3037.2610382499997,91117.8311475,91117,3037.233333333333,1.8768516692798585,3,1,6,2,1.0,2.0,b'HB_47_LongA.png',3039.1378899192796,91174.13669757839,91174,3039.133333333333
174,3039.1517325,91174.551975,91174,3039.133333333333,3039.68497875,91190.5493625,91190,3039.6666666666665,3041.7186285,91251.558855,91251,3041.7,2.3575431464705616,3,1,6,2,1.0,2.0,b'HB_30_LongA.png',3044.0761716464704,91322.28514939411,91322,3044.0666666666666
175,3044.07857725,91322.35731749999,91322,3044.0666666666666,3044.67846625,91340.3539875,91340,3044.6666666666665,3046.71190075,91401.3570225,91401,3046.7,3.486466376343742,1,2,7,2,2.0,3.0,b'NB_9_LongA.png',3050.198367126344,91505.95101379031,91505,3050.1666666666665
176,3050.2114147499997,91506.3424425,91506,3050.2,3050.8112887499997,91524.33866249998,91524,3050.8,3052.8449404999997,91585.34821499999,91585,3052.8333333333335,2.5308588373009115,2,1,2,1,2.0,3.0,b'SB_25_ShortA.png',3055.3757993373006,91661.27398011902,91661,3055.366666666667
177,3055.3823429999998,91661.47029,91661,3055.366666666667,3055.91567725,91677.4703175,91677,3055.9,3057.9493332499997,91738.47999749999,91738,3057.9333333333334,2.156697390601039,2,2,2,1,1.0,3.0,b'SB_26_ShortA.png',3060.1060306406007,91803.18091921802,91803,3060.1
178,3060.1153314999997,91803.459945,91803,3060.1,3060.68199325,91820.45979749999,91820,3060.6666666666665,3062.71551675,91881.4655025,91881,3062.7,1.433089636033401,1,2,7,2,2.0,3.0,b'NB_15_ShortA.png',3064.1486063860334,91924.458191581,91924,3064.133333333333
179,3064.2019295,91926.057885,91926,3064.2,3064.8233837499997,91944.70151249999,91944,3064.8,3066.9039694999997,92007.11908499998,92007,3066.9,2.0392127110389993,2,1,5,2,1.0,1.0,b'SB_30_ShortA.png',3068.9431822110387,92068.29546633115,92068,3068.9333333333334
180,3068.95471375,92068.6414125,92068,3068.9333333333334,3069.4541515,92083.624545,92083,3069.4333333333334,3071.486325,92144.58975,92144,3071.4666666666667,2.131215793895535,2,2,2,1,1.0,3.0,b'SB_30_LongA.png',3073.6175407938954,92208.52622381687,92208,3073.6
