trial_num,fixcross_time,fixation_HZ,fixation_bin,fixation_regarded,start_time,Fstart_HZ,Fstart_bin,Fstart_regarded,stop_time,Fstop_HZ,Fstop_bin,Fstop_regarded,RT,boundary_type,key,resp_value,leftright,accuracy,confidence,frameName,response_time,response_HZ,response_bin,response_regarded
1,2080.353286,62410.59858,62410,2080.3333333333335,2080.870075,62426.102249999996,62426,2080.866666666667,2082.9061807499997,62487.18542249999,62487,2082.9,3.963162106461823,3,2,2,1,1.0,3.0,b'HB_23_ShortA.png',2086.8693428564616,62606.080285693846,62606,2086.866666666667
2,2086.8852697499997,62606.55809249999,62606,2086.866666666667,2087.402148,62622.06444,62622,2087.4,2089.436652,62683.099559999995,62683,2089.4333333333334,1.412821581121534,1,1,3,1,2.0,2.0,b'NB_30_ShortA.png',2090.8494735811214,62725.48420743364,62725,2090.8333333333335
3,2090.8577192499997,62725.73157749999,62725,2090.8333333333335,2091.34120175,62740.2360525,62740,2091.3333333333335,2093.37575925,62801.2727775,62801,2093.366666666667,1.879749409854412,3,1,7,2,1.0,3.0,b'HB_34_ShortA.png',2095.2555086598545,62857.665259795634,62857,2095.233333333333
4,2095.2725929999997,62858.17778999999,62858,2095.266666666667,2095.78945775,62873.6837325,62873,2095.766666666667,2097.8240785,62934.72235499999,62934,2097.8,2.498505719471723,3,1,7,2,1.0,3.0,b'HB_60_LongA.png',2100.3225842194715,63009.67752658414,63009,2100.3
5,2100.3295964999998,63009.88789499999,63009,2100.3,2100.87973575,63026.39207249999,63026,2100.866666666667,2102.9142105,63087.426315000004,63087,2102.9,1.0885774111375213,1,2,6,2,2.0,2.0,b'NB_10_ShortA.png',2104.0027879111376,63120.08363733413,63120,2104.0
6,2104.0107035,63120.321105,63120,2104.0,2104.5108514999997,63135.32554499999,63135,2104.5,2106.54535425,63196.3606275,63196,2106.5333333333333,1.5088491369970143,1,1,3,1,2.0,2.0,b'NB_4_LongA.png',2108.054203386997,63241.62610160991,63241,2108.0333333333333
7,2108.0582142499998,63241.746427499995,63241,2108.0333333333333,2108.5750565,63257.251695,63257,2108.5666666666666,2110.609627,63318.28881,63318,2110.6,2.331830089446157,2,1,2,1,2.0,3.0,b'SB_57_LongA.png',2112.941457089446,63388.24371268338,63388,2112.9333333333334
8,2112.9466515,63388.399545,63388,2112.9333333333334,2113.48019275,63404.40578249999,63404,2113.4666666666667,2115.51472525,63465.441757500004,63465,2115.5,0.9862099573947489,1,2,6,2,2.0,2.0,b'NB_14_ShortA.png',2116.500935207395,63495.02805622185,63495,2116.5
9,2116.5051245,63495.153735,63495,2116.5,2116.988598,63509.65794,63509,2116.9666666666667,2119.02310875,63570.693262500004,63570,2119.0,2.4848809693939984,3,1,7,2,1.0,3.0,b'HB_29_ShortA.png',2121.507989719394,63645.239691581824,63645,2121.5
10,2121.5199665,63645.598995,63645,2121.5,2121.986803,63659.60408999999,63659,2121.9666666666667,2124.02125075,63720.6375225,63720,2124.0,1.5449510510079563,3,2,7,2,2.0,3.0,b'HB_21_ShortA.png',2125.566201801008,63766.98605403024,63766,2125.5333333333333
11,2125.57515775,63767.2547325,63767,2125.5666666666666,2126.10870725,63783.261217499996,63783,2126.1,2128.1431614999997,63844.29484499999,63844,2128.133333333333,2.7167436880990863,3,2,2,1,1.0,3.0,b'HB_58_ShortA.png',2130.8599051880988,63925.79715564296,63925,2130.8333333333335
12,2130.865425,63925.96275,63925,2130.8333333333335,2131.3989075,63941.967225,63941,2131.366666666667,2133.43341475,64003.002442499994,64003,2133.4333333333334,0.0,2,1,1,1,2.0,0.0,b'SB_20_LongA.png',2133.43341475,64003.002442499994,64003,2133.4333333333334
13,2134.5661032499997,64036.98309749999,64036,2134.5333333333333,2135.04960825,64051.4882475,64051,2135.0333333333333,2137.08404225,64112.5212675,64112,2137.0666666666666,2.310758318286389,3,2,2,1,1.0,3.0,b'HB_1_ShortA.png',2139.3948005682864,64181.84401704859,64181,2139.366666666667
14,2139.40938075,64182.2814225,64182,2139.4,2139.942881,64198.28643,64198,2139.9333333333334,2141.97735525,64259.3206575,64259,2141.9666666666667,2.4338865159079432,1,1,3,1,2.0,2.0,b'NB_13_ShortA.png',2144.411241765908,64332.33725297724,64332,2144.4
15,2144.4255049999997,64332.76514999999,64332,2144.4,2144.89233875,64346.7701625,64346,2144.866666666667,2146.92684,64407.8052,64407,2146.9,1.8400695831514895,1,2,6,2,2.0,2.0,b'NB_20_LongA.png',2148.7669095831516,64463.00728749455,64463,2148.766666666667
16,2148.77312975,64463.1938925,64463,2148.766666666667,2149.3065939999997,64479.19781999999,64479,2149.3,2151.3410695,64540.232084999996,64540,2151.3333333333335,2.247024172451347,3,2,7,2,2.0,3.0,b'HB_27_LongA.png',2153.588093672451,64607.64281017354,64607,2153.5666666666666
17,2153.5971289999998,64607.91386999999,64607,2153.5666666666666,2154.097304,64622.91912,64622,2154.0666666666666,2156.131744,64683.95232,64683,2156.1,3.317701934836805,3,1,3,1,2.0,2.0,b'HB_25_ShortA.png',2159.4494459348366,64783.4833780451,64783,2159.4333333333334
18,2159.4540644999997,64783.62193499999,64783,2159.4333333333334,2160.0042205,64800.126615,64800,2160.0,2162.0386975,64861.160925000004,64861,2162.0333333333333,2.0286864703521132,1,2,6,2,2.0,2.0,b'NB_27_LongA.png',2164.0673839703522,64922.02151911057,64922,2164.0666666666666
19,2164.08579925,64922.573977500004,64922,2164.0666666666666,2164.55263725,64936.5791175,64936,2164.5333333333333,2166.5870685,64997.612055,64997,2166.5666666666666,1.4849474192596972,2,2,7,2,2.0,3.0,b'SB_31_LongA.png',2168.0720159192597,65042.16047757779,65042,2168.0666666666666
20,2168.076945,65042.30834999999,65042,2168.0666666666666,2168.5938109999997,65057.814329999994,65057,2168.5666666666666,2170.6282794999997,65118.84838499999,65118,2170.6,3.0057769641280174,3,1,7,2,1.0,3.0,b'HB_51_LongA.png',2173.6340564641278,65209.02169392383,65209,2173.633333333333
21,2173.6499,65209.496999999996,65209,2173.633333333333,2174.1500647499997,65224.50194249999,65224,2174.133333333333,2176.184613,65285.538389999994,65285,2176.1666666666665,2.6078594783321023,2,1,2,1,2.0,3.0,b'SB_7_LongA.png',2178.792472478332,65363.77417434996,65363,2178.766666666667
22,2178.8045307499997,65364.13592249999,65364,2178.8,2179.271334,65378.14002,65378,2179.266666666667,2181.3058475,65439.175424999994,65439,2181.3,2.156082014553249,2,2,7,2,2.0,3.0,b'SB_52_ShortA.png',2183.461929514553,65503.85788543659,65503,2183.4333333333334
23,2183.4767859999997,65504.30357999999,65504,2183.4666666666667,2183.94359325,65518.307797500005,65518,2183.9333333333334,2185.97808175,65579.3424525,65579,2185.9666666666667,2.989999334793538,2,1,3,1,2.0,2.0,b'SB_40_ShortA.png',2188.9680810847935,65669.0424325438,65669,2188.9666666666667
24,2188.9855055,65669.56516499999,65669,2188.9666666666667,2189.56908025,65687.07240749999,65687,2189.5666666666666,2191.60349925,65748.1049775,65748,2191.6,2.0621065609157085,1,2,6,2,2.0,2.0,b'NB_22_LongA.png',2193.6656058109156,65809.96817432747,65809,2193.633333333333
25,2193.6790425,65810.371275,65810,2193.6666666666665,2194.14588875,65824.3766625,65824,2194.133333333333,2196.18035675,65885.4107025,65885,2196.1666666666665,1.5945296734571457,2,2,6,2,2.0,2.0,b'SB_28_LongA.png',2197.7748864234572,65933.24659270371,65933,2197.766666666667
26,2197.78081325,65933.4243975,65933,2197.766666666667,2198.26431525,65947.9294575,65947,2198.233333333333,2200.298746,66008.96238,66008,2200.266666666667,1.6975029394961894,2,2,7,2,2.0,3.0,b'SB_54_LongA.png',2201.996248939496,66059.88746818488,66059,2201.9666666666667
27,2202.00293625,66060.0880875,66060,2202.0,2202.48638725,66074.5916175,66074,2202.4666666666667,2204.520882,66135.62646,66135,2204.5,2.6213432447984815,1,1,3,1,2.0,2.0,b'NB_8_LongA.png',2207.1422252447983,66214.26675734395,66214,2207.133333333333
28,2207.153559,66214.60677,66214,2207.133333333333,2207.6370695,66229.112085,66229,2207.633333333333,2209.6716754999998,66290.15026499999,66290,2209.6666666666665,1.4124076995067298,1,1,3,1,2.0,2.0,b'NB_14_LongA.png',2211.0840831995065,66332.52249598519,66332,2211.0666666666666
29,2211.0901062499997,66332.7031875,66332,2211.0666666666666,2211.5903117499997,66347.7093525,66347,2211.5666666666666,2213.624725,66408.74175,66408,2213.6,1.681284558493644,2,1,3,1,2.0,2.0,b'SB_46_LongA.png',2215.3060095584938,66459.18028675481,66459,2215.3
30,2215.318931,66459.56792999999,66459,2215.3,2215.7857504999997,66473.57251499999,66473,2215.766666666667,2217.82022775,66534.6068325,66534,2217.8,2.1777678350917995,3,1,3,1,2.0,2.0,b'HB_32_ShortA.png',2219.9979955850918,66599.93986755275,66599,2219.9666666666667
31,2220.00182375,66600.0547125,66600,2220.0,2220.4686094999997,66614.05828499999,66614,2220.4666666666667,2222.50310175,66675.0930525,66675,2222.5,1.0357043705880642,1,1,2,1,2.0,3.0,b'NB_13_LongA.png',2223.538806120588,66706.16418361764,66706,2223.5333333333333
32,2223.547606,66706.42818,66706,2223.5333333333333,2224.0310965,66720.93289499999,66720,2224.0,2226.06559175,66781.9677525,66781,2226.0333333333333,3.1300445357337594,3,1,6,2,1.0,2.0,b'HB_13_ShortA.png',2229.1956362857336,66875.86908857201,66875,2229.1666666666665
33,2229.2085039999997,66876.25511999999,66876,2229.2,2229.6920215,66890.760645,66890,2229.6666666666665,2231.72646025,66951.7938075,66951,2231.7,2.3913126988336444,3,1,3,1,2.0,2.0,b'HB_55_ShortA.png',2234.1177729488336,67023.53318846501,67023,2234.1
34,2234.124438,67023.73314,67023,2234.1,2234.65797175,67039.7391525,67039,2234.633333333333,2236.69242,67100.7726,67100,2236.6666666666665,1.1761727072298527,1,1,2,1,2.0,3.0,b'NB_28_LongA.png',2237.8685927072297,67136.05778121689,67136,2237.866666666667
35,2237.8804775,67136.41432499999,67136,2237.866666666667,2238.4139895,67152.419685,67152,2238.4,2240.44848225,67213.45446749999,67213,2240.4333333333334,2.2422632332891226,3,1,3,1,2.0,2.0,b'HB_9_LongA.png',2242.690745483289,67280.72236449867,67280,2242.6666666666665
36,2242.6995617499997,67280.98685249999,67280,2242.6666666666665,2243.21639325,67296.4917975,67296,2243.2,2245.2508875,67357.526625,67357,2245.233333333333,2.6026317393407226,3,2,2,1,1.0,3.0,b'HB_8_LongA.png',2247.8535192393406,67435.60557718022,67435,2247.8333333333335
37,2247.8661564999998,67435.98469499999,67435,2247.8333333333335,2248.3996039999997,67451.98812,67451,2248.366666666667,2250.43408625,67513.02258749999,67513,2250.4333333333334,2.0351144350133836,1,2,7,2,2.0,3.0,b'NB_2_LongA.png',2252.469200685013,67574.07602055039,67574,2252.4666666666667
38,2252.481868,67574.45603999999,67574,2252.4666666666667,2253.0153685,67590.461055,67590,2253.0,2255.04987275,67651.49618249999,67651,2255.0333333333333,1.7077831476926804,2,2,7,2,2.0,3.0,b'SB_15_LongA.png',2256.7576558976925,67702.72967693077,67702,2256.733333333333
39,2256.7621575,67702.86472499999,67702,2256.733333333333,2257.2456199999997,67717.36859999999,67717,2257.233333333333,2259.28012925,67778.4038775,67778,2259.266666666667,1.841177902650088,1,1,2,1,2.0,3.0,b'NB_17_ShortA.png',2261.12130715265,67833.6392145795,67833,2261.1
40,2261.131082,67833.93246,67833,2261.1,2261.681272,67850.43815999999,67850,2261.6666666666665,2263.71574075,67911.4722225,67911,2263.7,2.0058335443027318,3,2,6,2,2.0,2.0,b'HB_48_ShortA.png',2265.7215742943026,67971.64722882908,67971,2265.7
41,2265.7290785,67971.872355,67971,2265.7,2266.2292294999997,67986.87688499999,67986,2266.2,2268.26376975,68047.91309249999,68047,2268.233333333333,1.8962168158032,1,1,2,1,2.0,3.0,b'NB_16_ShortA.png',2270.159986565803,68104.79959697409,68104,2270.133333333333
42,2270.1724342499997,68105.17302749999,68105,2270.1666666666665,2270.655922,68119.67766,68119,2270.633333333333,2272.69040375,68180.7121125,68180,2272.6666666666665,2.370078097563237,3,2,6,2,2.0,2.0,b'HB_3_LongA.png',2275.060481847563,68251.8144554269,68251,2275.0333333333333
43,2275.07489675,68252.2469025,68252,2275.0666666666666,2275.59177675,68267.7533025,68267,2275.5666666666666,2277.626284,68328.78852,68328,2277.6,2.303429964929819,3,1,3,1,2.0,2.0,b'HB_14_LongA.png',2279.9297139649298,68397.8914189479,68397,2279.9
44,2279.94017675,68398.20530249999,68398,2279.9333333333334,2280.4737015,68414.211045,68414,2280.4666666666667,2282.508209,68475.24627,68475,2282.5,2.4430579696781933,3,2,3,1,1.0,2.0,b'HB_12_ShortA.png',2284.9512669696783,68548.53800909035,68548,2284.9333333333334
45,2284.96148825,68548.8446475,68548,2284.9333333333334,2285.4950412499998,68564.8512375,68564,2285.4666666666667,2287.5295175,68625.885525,68625,2287.5,2.4765882990323007,2,2,7,2,2.0,3.0,b'SB_5_LongA.png',2290.0061057990324,68700.18317397097,68700,2290.0
46,2290.01485225,68700.44556749999,68700,2290.0,2290.5149752499997,68715.44925749999,68715,2290.5,2292.54945775,68776.4837325,68776,2292.5333333333333,1.8672496830113232,1,2,6,2,2.0,2.0,b'NB_30_LongA.png',2294.416707433011,68832.50122299034,68832,2294.4
47,2294.43579975,68833.07399250001,68833,2294.4333333333334,2294.902584,68847.07751999999,68847,2294.9,2296.93702175,68908.1106525,68908,2296.9333333333334,2.408258907031268,2,1,2,1,2.0,3.0,b'SB_29_ShortA.png',2299.3452806570313,68980.35841971094,68980,2299.3333333333335
48,2299.3483705,68980.451115,68980,2299.3333333333335,2299.86518225,68995.9554675,68995,2299.8333333333335,2301.8996485,69056.98945499999,69056,2301.866666666667,1.598455598577857,1,1,4,1,2.0,1.0,b'NB_11_LongA.png',2303.4981040985776,69104.94312295732,69104,2303.4666666666667
49,2303.50666675,69105.2000025,69105,2303.5,2303.9734955,69119.20486499999,69119,2303.9666666666667,2306.00797925,69180.2393775,69180,2306.0,4.198742360342294,2,1,7,2,1.0,3.0,b'SB_2_ShortA.png',2310.2067216103424,69306.20164831026,69306,2310.2
50,2310.2120605,69306.361815,69306,2310.2,2310.7455677499997,69322.3670325,69322,2310.733333333333,2312.7800245,69383.400735,69383,2312.766666666667,2.5898554772138596,2,2,7,2,2.0,3.0,b'SB_39_ShortA.png',2315.3698799772137,69461.09639931642,69461,2315.366666666667
51,2315.3786035,69461.35810499999,69461,2315.366666666667,2315.84544825,69475.3634475,69475,2315.8333333333335,2317.879943,69536.39829,69536,2317.866666666667,0.5591425388120115,2,2,2,1,1.0,3.0,b'SB_37_LongA.png',2318.439085538812,69553.17256616436,69553,2318.4333333333334
52,2318.45151475,69553.5454425,69553,2318.4333333333334,2319.00169725,69570.05091749999,69570,2319.0,2321.036196,69631.08588,69631,2321.0333333333333,1.4116938458755612,2,1,2,1,2.0,3.0,b'SB_11_LongA.png',2322.4478898458756,69673.43669537627,69673,2322.4333333333334
53,2322.4595405,69673.786215,69673,2322.4333333333334,2322.9430187499997,69688.2905625,69688,2322.9333333333334,2324.977517,69749.32551,69749,2324.9666666666667,0.8647633497603238,1,1,7,2,1.0,3.0,b'NB_19_LongA.png',2325.84228034976,69775.2684104928,69775,2325.8333333333335
54,2325.84624,69775.3872,69775,2325.8333333333335,2326.36310375,69790.8931125,69790,2326.3333333333335,2328.3975725,69851.927175,69851,2328.366666666667,1.854496824555099,1,2,2,1,1.0,3.0,b'NB_27_ShortA.png',2330.252069324555,69907.56207973666,69907,2330.233333333333
55,2330.266039,69907.98117,69907,2330.233333333333,2330.749497,69922.48491,69922,2330.733333333333,2332.7839894999997,69983.51968499999,69983,2332.766666666667,1.9595026788301766,2,2,2,1,1.0,3.0,b'SB_33_ShortA.png',2334.74349217883,70042.3047653649,70042,2334.733333333333
56,2334.7479344999997,70042.43803499998,70042,2334.733333333333,2335.264744,70057.94232,70057,2335.233333333333,2337.29930325,70118.97909749999,70118,2337.266666666667,2.579332458321005,1,1,4,1,2.0,1.0,b'NB_26_ShortA.png',2339.878635708321,70196.35907124962,70196,2339.866666666667
57,2339.8855635,70196.566905,70196,2339.866666666667,2340.4024247499997,70212.0727425,70212,2340.4,2342.43699175,70273.1097525,70273,2342.4333333333334,1.1411240980960429,1,1,2,1,2.0,3.0,b'NB_11_ShortA.png',2343.578115848096,70307.34347544287,70307,2343.5666666666666
58,2343.5815507499997,70307.44652249999,70307,2343.5666666666666,2344.0483405,70321.450215,70321,2344.0333333333333,2346.0828027499997,70382.48408249998,70382,2346.0666666666666,2.539833728224039,3,1,6,2,1.0,2.0,b'HB_16_LongA.png',2348.6226364782237,70458.6790943467,70458,2348.6
59,2348.630061,70458.90182999999,70458,2348.6,2349.163516,70474.90548,70474,2349.133333333333,2351.198031,70535.94093,70535,2351.1666666666665,3.790523366071284,3,1,6,2,1.0,2.0,b'HB_28_LongA.png',2354.988554366071,70649.65663098214,70649,2354.9666666666667
60,2355.00503,70650.1509,70650,2355.0,2355.47189275,70664.1567825,70664,2355.4666666666667,2357.5063055,70725.189165,70725,2357.5,2.273223601747304,1,1,2,1,2.0,3.0,b'NB_1_ShortA.png',2359.7795291017474,70793.38587305242,70793,2359.766666666667
61,2359.7924915,70793.774745,70793,2359.766666666667,2360.27596525,70808.27895749999,70808,2360.266666666667,2362.3104865,70869.314595,70869,2362.3,1.3860063017345965,2,2,2,1,1.0,3.0,b'SB_34_ShortA.png',2363.6964928017346,70910.89478405204,70910,2363.6666666666665
62,2363.702755,70911.08265,70911,2363.7,2364.202923,70926.08769,70926,2364.2,2366.237378,70987.12134,70987,2366.233333333333,1.6091422527097166,2,2,7,2,2.0,3.0,b'SB_19_LongA.png',2367.8465202527095,71035.39560758129,71035,2367.8333333333335
63,2367.86319875,71035.8959625,71035,2367.8333333333335,2368.3466639999997,71050.39992,71050,2368.3333333333335,2370.381178,71111.43534,71111,2370.366666666667,2.462315128184855,1,1,2,1,2.0,3.0,b'NB_15_ShortA.png',2372.843493128185,71185.30479384554,71185,2372.8333333333335
64,2372.8580245,71185.740735,71185,2372.8333333333335,2373.39149075,71201.74472249999,71201,2373.366666666667,2375.42598675,71262.7796025,71262,2375.4,3.07271583750844,3,1,6,2,1.0,2.0,b'HB_33_ShortA.png',2378.4987025875084,71354.96107762525,71354,2378.4666666666667
65,2378.5051789999998,71355.15537,71355,2378.5,2379.02203925,71370.6611775,71370,2379.0,2381.0565115,71431.695345,71431,2381.0333333333333,1.747977351769805,2,2,7,2,2.0,3.0,b'SB_26_LongA.png',2382.8044888517697,71484.1346655531,71484,2382.8
66,2382.8148645,71484.445935,71484,2382.8,2383.34835375,71500.4506125,71500,2383.3333333333335,2385.38284475,71561.4853425,71561,2385.366666666667,2.3188256374560297,3,1,6,2,1.0,2.0,b'HB_50_ShortA.png',2387.701670387456,71631.05011162368,71631,2387.7
67,2387.7150005,71631.450015,71631,2387.7,2388.2484462499997,71647.45338749999,71647,2388.233333333333,2390.2829975,71708.489925,71708,2390.266666666667,3.173914846498519,3,2,3,1,1.0,2.0,b'HB_42_LongA.png',2393.4569123464985,71803.70737039496,71803,2393.4333333333334
68,2393.4644387499998,71803.93316249999,71803,2393.4333333333334,2394.0145279999997,71820.43583999999,71820,2394.0,2396.0490755,71881.472265,71881,2396.0333333333333,1.3183791106566787,1,1,2,1,2.0,3.0,b'NB_28_ShortA.png',2397.3674546106568,71921.0236383197,71921,2397.366666666667
69,2397.3767602499997,71921.30280749999,71921,2397.366666666667,2397.89359075,71936.8077225,71936,2397.866666666667,2399.928045,71997.84135,71997,2399.9,1.7382771149277687,1,2,7,2,2.0,3.0,b'NB_1_LongA.png',2401.666322114928,72049.98966344784,72049,2401.633333333333
70,2401.6824865,72050.47459499999,72050,2401.6666666666665,2402.1492785,72064.478355,72064,2402.133333333333,2404.18380175,72125.5140525,72125,2404.1666666666665,3.1037346608936787,3,2,7,2,2.0,3.0,b'HB_36_ShortA.png',2407.2875364108936,72218.62609232681,72218,2407.266666666667
71,2407.29626775,72218.88803249999,72218,2407.266666666667,2407.829769,72234.89306999999,72234,2407.8,2409.86423875,72295.9271625,72295,2409.8333333333335,3.1814677864313126,3,2,3,1,1.0,2.0,b'HB_49_LongA.png',2413.045706536431,72391.37119609294,72391,2413.0333333333333
72,2413.06273525,72391.8820575,72391,2413.0333333333333,2413.52956125,72405.8868375,72405,2413.5,2415.5640865,72466.922595,72466,2415.5333333333333,2.641596677247435,3,1,3,1,2.0,2.0,b'HB_39_LongA.png',2418.2056831772475,72546.17049531742,72546,2418.2
73,2418.21200475,72546.3601425,72546,2418.2,2418.712176,72561.36528,72561,2418.7,2420.7467242499997,72622.4017275,72622,2420.733333333333,1.8872281573712826,1,2,7,2,2.0,3.0,b'NB_3_ShortA.png',2422.633952407371,72679.01857222113,72679,2422.633333333333
74,2422.64779225,72679.4337675,72679,2422.633333333333,2423.1646345,72694.939035,72694,2423.133333333333,2425.19909775,72755.9729325,72755,2425.1666666666665,1.5398773467168212,2,2,6,2,2.0,2.0,b'SB_43_LongA.png',2426.738975096717,72802.1692529015,72802,2426.733333333333
75,2426.74183375,72802.2550125,72802,2426.733333333333,2427.2920535,72818.76160499999,72818,2427.266666666667,2429.3265349999997,72879.79604999999,72879,2429.3,0.7390535636804998,2,2,2,1,1.0,3.0,b'SB_22_LongA.png',2430.06558856368,72901.9676569104,72901,2430.0333333333333
76,2430.0813722499997,72902.44116749999,72902,2430.0666666666666,2430.5648945,72916.946835,72916,2430.5333333333333,2432.599385,72977.98155,72977,2432.5666666666666,2.3189976401627064,1,2,7,2,2.0,3.0,b'NB_7_ShortA.png',2434.9183826401627,73047.55147920488,73047,2434.9
77,2434.9220877499997,73047.6626325,73047,2434.9,2435.38890425,73061.6671275,73061,2435.366666666667,2437.4234349999997,73122.70305,73122,2437.4,1.8149889861233532,2,1,7,2,1.0,3.0,b'SB_44_ShortA.png',2439.238423986123,73177.1527195837,73177,2439.233333333333
78,2439.2543605,73177.630815,73177,2439.233333333333,2439.737831,73192.13493,73192,2439.733333333333,2441.77233225,73253.1699675,73253,2441.766666666667,2.3168622395023704,1,1,2,1,2.0,3.0,b'NB_8_ShortA.png',2444.0891944895025,73322.67583468507,73322,2444.0666666666666
79,2444.1041822499997,73323.1254675,73323,2444.1,2444.6376335,73339.129005,73339,2444.633333333333,2446.67207875,73400.16236249999,73400,2446.6666666666665,1.818284195382148,1,2,7,2,2.0,3.0,b'NB_21_LongA.png',2448.490362945382,73454.71088836146,73454,2448.4666666666667
80,2448.49948,73454.9844,73454,2448.4666666666667,2448.9830162499998,73469.49048749999,73469,2448.9666666666667,2451.0174855,73530.524565,73530,2451.0,1.2245111400261521,2,2,7,2,2.0,3.0,b'SB_12_LongA.png',2452.241996640026,73567.25989920078,73567,2452.233333333333
81,2452.25734925,73567.7204775,73567,2452.233333333333,2452.8075344999997,73584.226035,73584,2452.8,2454.842024,73645.26072,73645,2454.8333333333335,1.810021970886737,3,2,6,2,2.0,2.0,b'HB_35_LongA.png',2456.652045970887,73699.56137912661,73699,2456.633333333333
82,2456.66532775,73699.9598325,73699,2456.633333333333,2457.13213175,73713.96395250001,73713,2457.1,2459.1665855,73774.997565,73774,2459.133333333333,1.977305119857192,2,1,6,2,1.0,2.0,b'SB_6_ShortA.png',2461.1438906198573,73834.31671859571,73834,2461.133333333333
83,2461.1485425,73834.456275,73834,2461.133333333333,2461.61536725,73848.4610175,73848,2461.6,2463.649867,73909.49601,73909,2463.633333333333,2.982544780243188,3,2,3,1,1.0,2.0,b'HB_54_LongA.png',2466.6324117802433,73998.9723534073,73998,2466.6
84,2466.64207275,73999.2621825,73999,2466.633333333333,2467.1922835,74015.768505,74015,2467.1666666666665,2469.2267912499997,74076.80373749998,74076,2469.2,0.32960076117888093,2,2,7,2,2.0,3.0,b'SB_4_LongA.png',2469.5563920111786,74086.69176033535,74086,2469.5333333333333
85,2469.56493775,74086.9481325,74086,2469.5333333333333,2470.0484229999997,74101.45268999999,74101,2470.0333333333333,2472.0828819999997,74162.48645999999,74162,2472.0666666666666,1.8221652330830693,1,1,2,1,2.0,3.0,b'NB_25_LongA.png',2473.9050472330828,74217.15141699248,74217,2473.9
86,2473.9108415,74217.325245,74217,2473.9,2474.4276485,74232.829455,74232,2474.4,2476.46209375,74293.8628125,74293,2476.4333333333334,2.8296443042345345,3,2,6,2,2.0,2.0,b'HB_40_ShortA.png',2479.2917380542344,74378.75214162703,74378,2479.266666666667
87,2479.2945219999997,74378.83566,74378,2479.266666666667,2479.944767,74398.34301,74398,2479.9333333333334,2481.9792119999997,74459.37636,74459,2481.9666666666667,1.885267031379044,2,2,7,2,2.0,3.0,b'SB_16_LongA.png',2483.864479031379,74515.93437094137,74515,2483.8333333333335
88,2483.8830325,74516.490975,74516,2483.866666666667,2484.38318175,74531.49545249999,74531,2484.366666666667,2486.41771825,74592.5315475,74592,2486.4,2.0165846492163837,3,2,3,1,1.0,2.0,b'HB_57_LongA.png',2488.434302899216,74653.02908697649,74653,2488.4333333333334
89,2488.45306725,74653.5920175,74653,2488.4333333333334,2488.936586,74668.09758,74668,2488.9333333333334,2490.97100675,74729.1302025,74729,2490.9666666666667,1.4719932503066957,1,1,7,2,1.0,3.0,b'NB_23_LongA.png',2492.4430000003067,74773.2900000092,74773,2492.4333333333334
90,2492.458724,74773.76172000001,74773,2492.4333333333334,2492.97554975,74789.2664925,74789,2492.9666666666667,2495.0101502499997,74850.3045075,74850,2495.0,3.7299408903345466,3,2,3,1,1.0,2.0,b'HB_46_LongA.png',2498.7400911403342,74962.20273421003,74962,2498.733333333333
91,2498.75184025,74962.5552075,74962,2498.733333333333,2499.28535875,74978.5607625,74978,2499.266666666667,2501.31981825,75039.5945475,75039,2501.3,2.405109802726656,3,2,3,1,1.0,2.0,b'HB_10_ShortA.png',2503.7249280527267,75111.7478415818,75111,2503.7
92,2503.7384227499997,75112.15268249999,75112,2503.733333333333,2504.22193175,75126.6579525,75126,2504.2,2506.256394,75187.69182000001,75187,2506.233333333333,1.6988925174809992,2,2,7,2,2.0,3.0,b'SB_8_ShortA.png',2507.955286517481,75238.65859552444,75238,2507.9333333333334
93,2507.9593207499997,75238.77962249999,75238,2507.9333333333334,2508.59287925,75257.7863775,75257,2508.5666666666666,2510.627337,75318.82011,75318,2510.6,3.1104522361420095,3,2,6,2,2.0,2.0,b'HB_4_ShortA.png',2513.737789236142,75412.13367708426,75412,2513.733333333333
94,2513.743853,75412.31559,75412,2513.733333333333,2514.2106535,75426.319605,75426,2514.2,2516.2451457499997,75487.35437249999,75487,2516.233333333333,1.8498961520381272,1,1,2,1,2.0,3.0,b'NB_15_LongA.png',2518.095041902038,75542.85125706113,75542,2518.0666666666666
95,2518.11016025,75543.3048075,75543,2518.1,2518.626957,75558.80871,75558,2518.6,2520.6615979999997,75619.84793999999,75619,2520.633333333333,2.005247429944575,3,2,6,2,2.0,2.0,b'HB_45_ShortA.png',2522.6668454299443,75680.00536289833,75680,2522.6666666666665
96,2522.6857305,75680.571915,75680,2522.6666666666665,2523.15254325,75694.5762975,75694,2523.133333333333,2525.18701625,75755.6104875,75755,2525.1666666666665,2.0143785141408443,2,1,2,1,2.0,3.0,b'SB_41_LongA.png',2527.201394764141,75816.04184292423,75816,2527.2
97,2527.216962,75816.50886,75816,2527.2,2527.733762,75832.01285999999,75832,2527.733333333333,2529.7683535,75893.050605,75893,2529.766666666667,0.8401773357763886,1,1,2,1,2.0,3.0,b'NB_19_ShortA.png',2530.6085308357765,75918.25592507329,75918,2530.6
98,2530.626729,75918.80187,75918,2530.6,2531.09351325,75932.8053975,75932,2531.0666666666666,2533.12795775,75993.8387325,75993,2533.1,3.4522713772021234,3,1,7,2,1.0,3.0,b'HB_30_LongA.png',2536.580229127202,76097.40687381606,76097,2536.5666666666666
99,2536.5948384999997,76097.84515499999,76097,2536.5666666666666,2537.06167125,76111.8501375,76111,2537.0333333333333,2539.09613825,76172.8841475,76172,2539.0666666666666,2.0232947785407305,1,1,5,2,1.0,1.0,b'NB_26_LongA.png',2541.1194330285407,76233.58299085622,76233,2541.1
100,2541.13550925,76234.06527749999,76234,2541.133333333333,2541.66896825,76250.0690475,76250,2541.6666666666665,2543.7034845,76311.10453499999,76311,2543.7,1.4886098960414529,2,2,7,2,2.0,3.0,b'SB_48_ShortA.png',2545.1920943960413,76355.76283188123,76355,2545.1666666666665
101,2545.20836725,76356.25101749999,76356,2545.2,2545.75854325,76372.7562975,76372,2545.733333333333,2547.792987,76433.78960999999,76433,2547.766666666667,2.940120929852128,1,2,2,1,1.0,3.0,b'NB_25_ShortA.png',2550.733107929852,76521.99323789556,76521,2550.7
102,2550.7478345,76522.435035,76522,2550.733333333333,2551.2480084999997,76537.440255,76537,2551.233333333333,2553.28255125,76598.4765375,76598,2553.266666666667,2.4509194786660373,3,1,3,1,2.0,2.0,b'HB_43_LongA.png',2555.733470728666,76672.00412185998,76672,2555.733333333333
103,2555.74775675,76672.4327025,76672,2555.733333333333,2556.297972,76688.93916,76688,2556.266666666667,2558.33243,76749.9729,76749,2558.3,2.3326516998931766,1,1,2,1,2.0,3.0,b'NB_24_ShortA.png',2560.665081699893,76819.95245099679,76819,2560.633333333333
104,2560.6751464999998,76820.254395,76820,2560.6666666666665,2561.2086179999997,76836.25854,76836,2561.2,2563.24316975,76897.2950925,76897,2563.233333333333,2.2950135651044548,3,2,7,2,2.0,3.0,b'HB_5_ShortA.png',2565.5381833151046,76966.14549945314,76966,2565.5333333333333
105,2565.5567849999998,76966.70354999999,76966,2565.5333333333333,2566.107005,76983.21015,76983,2566.1,2568.14147675,77044.2443025,77044,2568.133333333333,3.1200079494155943,3,2,6,2,2.0,2.0,b'HB_26_ShortA.png',2571.2614846994156,77137.84454098246,77137,2571.233333333333
106,2571.26684175,77138.00525249999,77138,2571.266666666667,2571.78369975,77153.5109925,77153,2571.766666666667,2573.8181205,77214.543615,77214,2573.8,2.472145707346499,3,2,6,2,2.0,2.0,b'HB_24_ShortA.png',2576.2902662073466,77288.7079862204,77288,2576.266666666667
107,2576.3001635,77289.00490500001,77289,2576.3,2576.783645,77303.50935,77303,2576.766666666667,2578.81809875,77364.5429625,77364,2578.8,0.9830497954972088,1,2,2,1,1.0,3.0,b'NB_4_ShortA.png',2579.801148545497,77394.03445636491,77394,2579.8
108,2579.806021,77394.18063,77394,2579.8,2580.27287575,77408.1862725,77408,2580.266666666667,2582.3074657499997,77469.2239725,77469,2582.3,1.1606015753932297,2,1,2,1,2.0,3.0,b'SB_3_LongA.png',2583.468067325393,77504.0420197618,77504,2583.4666666666667
109,2583.481088,77504.43264,77504,2583.4666666666667,2583.9812442499997,77519.4373275,77519,2583.9666666666667,2586.0157262499997,77580.47178749999,77580,2586.0,2.4220751794055104,1,1,7,2,1.0,3.0,b'NB_20_ShortA.png',2588.437801429405,77653.13404288216,77653,2588.4333333333334
110,2588.44970625,77653.4911875,77653,2588.4333333333334,2588.983205,77669.49615,77669,2588.9666666666667,2591.01762725,77730.52881749999,77730,2591.0,0.8938144431449473,1,1,7,2,1.0,3.0,b'NB_16_LongA.png',2591.9114416931448,77757.34325079434,77757,2591.9
111,2591.917343,77757.52029,77757,2591.9,2592.434183,77773.02549,77773,2592.4333333333334,2594.468657,77834.05971,77834,2594.4666666666667,2.405985345132649,1,2,2,1,1.0,3.0,b'NB_6_ShortA.png',2596.8746423451325,77906.23927035398,77906,2596.866666666667
112,2596.8929467499997,77906.7884025,77906,2596.866666666667,2597.4431405,77923.294215,77923,2597.4333333333334,2599.4775907499998,77984.32772249999,77984,2599.4666666666667,1.705202175769955,2,1,2,1,2.0,3.0,b'SB_55_LongA.png',2601.1827929257697,78035.48378777309,78035,2601.1666666666665
113,2601.1867225,78035.601675,78035,2601.1666666666665,2601.67019025,78050.1057075,78050,2601.6666666666665,2603.7046837499997,78111.14051249999,78111,2603.7,1.7806817358359694,1,1,7,2,1.0,3.0,b'NB_17_LongA.png',2605.4853654858357,78164.56096457507,78164,2605.4666666666667
114,2605.49315425,78164.7946275,78164,2605.4666666666667,2605.9600195,78178.80058499999,78178,2605.9333333333334,2607.9944957499997,78239.8348725,78239,2607.9666666666667,1.9341829824261367,2,1,2,1,2.0,3.0,b'SB_56_ShortA.png',2609.928678732426,78297.86036197278,78297,2609.9
115,2609.93208875,78297.9626625,78297,2609.9,2610.4822529999997,78314.46758999999,78314,2610.4666666666667,2612.516802,78375.50406,78375,2612.5,3.6288137827068567,3,2,6,2,2.0,2.0,b'HB_37_ShortA.png',2616.145615782707,78484.36847348121,78484,2616.133333333333
116,2616.1549339999997,78484.64802,78484,2616.133333333333,2616.6550897499997,78499.65269249999,78499,2616.633333333333,2618.6895755,78560.687265,78560,2618.6666666666665,1.2773555908352137,2,2,2,1,1.0,3.0,b'SB_13_ShortA.png',2619.9669310908353,78599.00793272506,78599,2619.9666666666667
117,2619.96989975,78599.0969925,78599,2619.9666666666667,2620.62014375,78618.6043125,78618,2620.6,2622.6546319999998,78679.63896,78679,2622.633333333333,1.1591438534669578,2,1,6,2,1.0,2.0,b'SB_14_LongA.png',2623.8137758534667,78714.413275604,78714,2623.8
118,2623.8215069999997,78714.64520999999,78714,2623.8,2624.388333,78731.64998999999,78731,2624.366666666667,2626.4228405,78792.68521499999,78792,2626.4,3.707878210116178,3,2,6,2,2.0,2.0,b'HB_47_LongA.png',2630.130718710116,78903.92156130348,78903,2630.1
119,2630.1495152499997,78904.48545749999,78904,2630.133333333333,2630.6329645,78918.988935,78918,2630.6,2632.66755375,78980.0266125,78980,2632.6666666666665,1.5420826515182853,2,1,2,1,2.0,3.0,b'SB_51_ShortA.png',2634.2096364015183,79026.28909204555,79026,2634.2
120,2634.2214639999997,79026.64391999999,79026,2634.2,2634.738311,79042.14933,79042,2634.733333333333,2636.77278,79103.1834,79103,2636.766666666667,2.684444817248732,3,2,6,2,2.0,2.0,b'HB_19_ShortA.png',2639.4572248172485,79183.71674451746,79183,2639.4333333333334
121,2639.46006275,79183.8018825,79183,2639.4333333333334,2640.010283,79200.30849,79200,2640.0,2642.0447664999997,79261.34299499998,79261,2642.0333333333333,0.8025195002555847,2,2,2,1,1.0,3.0,b'SB_59_ShortA.png',2642.8472860002553,79285.41858000765,79285,2642.8333333333335
122,2642.8539225,79285.617675,79285,2642.8333333333335,2643.3374664999997,79300.12399499999,79300,2643.3333333333335,2645.3720025,79361.16007499999,79361,2645.366666666667,0.9827640480361879,1,1,7,2,1.0,3.0,b'NB_10_LongA.png',2646.354766548036,79390.64299644108,79390,2646.3333333333335
123,2646.3628005,79390.884015,79390,2646.3333333333335,2646.8462999999997,79405.389,79405,2646.8333333333335,2648.88080275,79466.4240825,79466,2648.866666666667,1.1854219241067767,1,2,2,1,1.0,3.0,b'NB_7_LongA.png',2650.0662246741067,79501.9867402232,79501,2650.0333333333333
124,2650.0803385,79502.41015499999,79502,2650.0666666666666,2650.59716675,79517.9150025,79517,2650.5666666666666,2652.6317234999997,79578.95170499998,79578,2652.6,1.8551679123193026,1,2,2,1,1.0,3.0,b'NB_12_ShortA.png',2654.486891412319,79634.60674236956,79634,2654.4666666666667
125,2654.5037012499997,79635.1110375,79635,2654.5,2654.9704819999997,79649.11446,79649,2654.9666666666667,2657.00496975,79710.1490925,79710,2657.0,0.7287529315799475,2,1,2,1,2.0,3.0,b'SB_36_ShortA.png',2657.73372268158,79732.0116804474,79732,2657.733333333333
126,2657.7384709999997,79732.15413,79732,2657.733333333333,2658.28863525,79748.6590575,79748,2658.266666666667,2660.323066,79809.69198,79809,2660.3,0.6955131497234106,2,2,7,2,2.0,3.0,b'SB_49_LongA.png',2661.0185791497233,79830.5573744917,79830,2661.0
127,2661.03241475,79830.9724425,79830,2661.0,2661.53259325,79845.9777975,79845,2661.5,2663.56708875,79907.0126625,79907,2663.5666666666666,4.092938042245805,3,2,6,2,2.0,2.0,b'HB_38_ShortA.png',2667.660026792246,80029.80080376737,80029,2667.633333333333
128,2667.66551575,80029.9654725,80029,2667.633333333333,2668.14899725,80044.4699175,80044,2668.133333333333,2670.1835235,80105.50570499999,80105,2670.1666666666665,1.9888620674610138,2,1,2,1,2.0,3.0,b'SB_9_LongA.png',2672.172385567461,80165.17156702382,80165,2672.1666666666665
129,2672.1763395,80165.29018499999,80165,2672.1666666666665,2672.6597815,80179.793445,80179,2672.633333333333,2674.69433625,80240.8300875,80240,2674.6666666666665,2.2550993459299207,3,2,2,1,1.0,3.0,b'HB_52_LongA.png',2676.94943559593,80308.4830678779,80308,2676.9333333333334
130,2676.9582495,80308.747485,80308,2676.9333333333334,2677.45838,80323.75140000001,80323,2677.4333333333334,2679.4929012499997,80384.78703749999,80384,2679.4666666666667,2.247629698831588,1,1,7,2,1.0,3.0,b'NB_5_LongA.png',2681.7405309488313,80452.21592846494,80452,2681.733333333333
131,2681.759229,80452.77686999999,80452,2681.733333333333,2682.30937775,80469.28133249999,80469,2682.3,2684.3438859999997,80530.31657999998,80530,2684.3333333333335,1.3534937198273838,1,2,7,2,2.0,3.0,b'NB_29_ShortA.png',2685.697379719827,80570.9213915948,80570,2685.6666666666665
132,2685.704776,80571.14328,80571,2685.7,2686.238276,80587.14828,80587,2686.233333333333,2688.27282325,80648.1846975,80648,2688.266666666667,1.9023218201473355,2,1,2,1,2.0,3.0,b'SB_60_ShortA.png',2690.175145070147,80705.25435210441,80705,2690.1666666666665
133,2690.1891754999997,80705.675265,80705,2690.1666666666665,2690.7060005,80721.18001499999,80721,2690.7,2692.7404792499997,80782.21437749999,80782,2692.733333333333,1.835659600328654,2,2,2,1,1.0,3.0,b'SB_50_ShortA.png',2694.5761388503283,80837.28416550985,80837,2694.5666666666666
134,2694.5949259999998,80837.84778,80837,2694.5666666666666,2695.1117875,80853.353625,80853,2695.1,2697.1462472499998,80914.3874175,80914,2697.133333333333,2.1121231438592076,3,1,6,2,1.0,2.0,b'HB_22_LongA.png',2699.258370393859,80977.75111181577,80977,2699.233333333333
135,2699.27318775,80978.1956325,80978,2699.266666666667,2699.9067704999998,80997.203115,80997,2699.9,2701.9412172499997,81058.23651749999,81058,2701.9333333333334,1.8499745950102806,3,1,2,1,2.0,3.0,b'HB_2_ShortA.png',2703.79119184501,81113.7357553503,81113,2703.766666666667
136,2703.796069,81113.88206999999,81113,2703.766666666667,2704.2628925,81127.88677499999,81127,2704.233333333333,2706.297419,81188.92257,81188,2706.266666666667,3.693750163540244,2,1,3,1,2.0,2.0,b'SB_53_LongA.png',2709.9911691635402,81299.7350749062,81299,2709.9666666666667
137,2709.99604075,81299.8812225,81299,2709.9666666666667,2710.5128999999997,81315.38699999999,81315,2710.5,2712.547333,81376.41999,81376,2712.5333333333333,2.0651470627635717,2,1,2,1,2.0,3.0,b'SB_17_ShortA.png',2714.6124800627636,81438.3744018829,81438,2714.6
138,2714.626718,81438.80154,81438,2714.6,2715.176936,81455.30807999999,81455,2715.1666666666665,2717.21139925,81516.3419775,81516,2717.2,1.1711302394978702,1,2,7,2,2.0,3.0,b'NB_2_ShortA.png',2718.3825294894978,81551.47588468493,81551,2718.366666666667
139,2718.3897847499998,81551.6935425,81551,2718.366666666667,2718.923304,81567.69912,81567,2718.9,2720.9577495,81628.732485,81628,2720.9333333333334,1.4082099539227784,1,2,2,1,1.0,3.0,b'NB_9_LongA.png',2722.3659594539226,81670.97878361768,81670,2722.3333333333335
140,2722.3702925,81671.108775,81671,2722.366666666667,2722.8537524999997,81685.61257499999,81685,2722.8333333333335,2724.88842675,81746.6528025,81746,2724.866666666667,1.871002135798335,3,2,6,2,2.0,2.0,b'HB_11_ShortA.png',2726.759428885798,81802.78286657395,81802,2726.733333333333
141,2726.7642769999998,81802.92830999999,81802,2726.733333333333,2727.3978465,81821.93539500001,81821,2727.366666666667,2729.4322695,81882.968085,81882,2729.4,2.1737079359591007,2,2,7,2,2.0,3.0,b'SB_25_ShortA.png',2731.605977435959,81948.17932307877,81948,2731.6
142,2731.6111014999997,81948.33304499999,81948,2731.6,2732.0946065,81962.83819499999,81962,2732.0666666666666,2734.1290615,82023.87184499999,82023,2734.1,2.1328009190037847,1,2,7,2,2.0,3.0,b'NB_24_LongA.png',2736.2618624190036,82087.8558725701,82087,2736.233333333333
143,2736.2790885,82088.372655,82088,2736.266666666667,2736.79590725,82103.87721749999,82103,2736.766666666667,2738.83035725,82164.9107175,82164,2738.8,2.863775776233524,3,1,3,1,2.0,2.0,b'HB_18_LongA.png',2741.6941330262334,82250.823990787,82250,2741.6666666666665
144,2741.70896675,82251.2690025,82251,2741.7,2742.1757534999997,82265.27260499999,82265,2742.1666666666665,2744.21017575,82326.3052725,82326,2744.2,2.3658194527961314,3,1,6,2,1.0,2.0,b'HB_15_LongA.png',2746.575995202796,82397.27985608389,82397,2746.5666666666666
145,2746.586438,82397.59314,82397,2746.5666666666666,2747.069944,82412.09831999999,82412,2747.0666666666666,2749.10436325,82473.1308975,82473,2749.1,1.6894289832562208,2,2,7,2,2.0,3.0,b'SB_21_ShortA.png',2750.793792233256,82523.81376699769,82523,2750.766666666667
146,2750.7985325,82523.955975,82523,2750.766666666667,2751.2820187499997,82538.4605625,82538,2751.266666666667,2753.31655375,82599.49661249999,82599,2753.3,0.8496924974024296,2,2,7,2,2.0,3.0,b'SB_38_LongA.png',2754.1662462474023,82624.98738742206,82624,2754.133333333333
147,2754.184001,82625.52003,82625,2754.1666666666665,2754.667502,82640.02506,82640,2754.6666666666665,2756.70197625,82701.0592875,82701,2756.7,2.568506666459143,2,1,6,2,1.0,2.0,b'SB_35_LongA.png',2759.270482916459,82778.11448749377,82778,2759.266666666667
148,2759.2827829999997,82778.48348999998,82778,2759.266666666667,2759.79962875,82793.9888625,82793,2759.766666666667,2761.83409425,82855.0228275,82855,2761.8333333333335,2.2132276496849954,1,2,7,2,2.0,3.0,b'NB_29_LongA.png',2764.047321899685,82921.41965699055,82921,2764.0333333333333
149,2764.06460725,82921.93821749999,82921,2764.0333333333333,2764.531437,82935.94311000001,82935,2764.5,2766.5660912499998,82996.98273749999,82996,2766.5333333333333,3.0662641967646778,3,1,7,2,1.0,3.0,b'HB_59_ShortA.png',2769.6323554467644,83088.97066340293,83088,2769.6
150,2769.647325,83089.41975,83089,2769.633333333333,2770.1807962499997,83105.42388749999,83105,2770.1666666666665,2772.2153077499997,83166.4592325,83166,2772.2,2.4839138705283403,2,2,3,1,1.0,2.0,b'SB_42_ShortA.png',2774.699221620528,83240.97664861585,83240,2774.6666666666665
151,2774.71778025,83241.5334075,83241,2774.7,2775.2179659999997,83256.53898,83256,2775.2,2777.25247375,83317.5742125,83317,2777.233333333333,2.0659533590078354,2,2,2,1,1.0,3.0,b'SB_1_ShortA.png',2779.3184271090076,83379.55281327023,83379,2779.3
152,2779.3347905,83380.043715,83380,2779.3333333333335,2779.9016575,83397.049725,83397,2779.9,2781.9361445,83458.08433499999,83458,2781.9333333333334,2.794553308747709,3,1,3,1,2.0,2.0,b'HB_41_LongA.png',2784.7306978087477,83541.92093426242,83541,2784.7
153,2784.7385987499997,83542.15796249999,83542,2784.733333333333,2785.2053847499997,83556.16154249999,83556,2785.2,2787.23989925,83617.19697749999,83617,2787.233333333333,0.6067991661839187,2,1,7,2,1.0,3.0,b'SB_24_shortA.png',2787.8466984161837,83635.4009524855,83635,2787.8333333333335
154,2787.8516984999997,83635.55095499998,83635,2787.8333333333335,2788.401825,83652.05475,83652,2788.4,2790.43632725,83713.0898175,83713,2790.4333333333334,1.7923326599411666,1,2,7,2,2.0,3.0,b'NB_21_ShortA.png',2792.228659909941,83766.85979729824,83766,2792.2
155,2792.24170325,83767.25109749999,83767,2792.233333333333,2792.7919147499997,83783.75744249999,83783,2792.766666666667,2794.82637875,83844.7913625,83844,2794.8,2.203587940428406,2,1,2,1,2.0,3.0,b'SB_18_LongA.png',2797.0299666904284,83910.89900071285,83910,2797.0
156,2797.0340889999998,83911.02266999999,83911,2797.0333333333333,2797.5009285,83925.02785500001,83925,2797.5,2799.5354285,83986.062855,83986,2799.5333333333333,2.500179630704224,1,1,2,1,2.0,3.0,b'NB_12_LongA.png',2802.035608130704,84061.06824392112,84061,2802.0333333333333
157,2802.0384517499997,84061.15355249999,84061,2802.0333333333333,2802.50531425,84075.15942750001,84075,2802.5,2804.5397935,84136.193805,84136,2804.5333333333333,2.234284701757133,3,1,7,2,1.0,3.0,b'HB_44_LongA.png',2806.774078201757,84203.22234605272,84203,2806.766666666667
158,2806.78667375,84203.6002125,84203,2806.766666666667,2807.3201795,84219.605385,84219,2807.3,2809.3547485,84280.642455,84280,2809.3333333333335,2.3462260677479208,3,1,2,1,2.0,3.0,b'HB_20_LongA.png',2811.700974567748,84351.02923703243,84351,2811.7
159,2811.7055485,84351.166455,84351,2811.7,2812.18907175,84365.6721525,84365,2812.1666666666665,2814.22354275,84426.7062825,84426,2814.2,1.9982533175498247,2,1,2,1,2.0,3.0,b'SB_27_LongA.png',2816.22179606755,84486.6538820265,84486,2816.2
160,2816.232768,84486.98303999999,84486,2816.2,2816.6996209999998,84500.98862999999,84500,2816.6666666666665,2818.734134,84562.02402,84562,2818.733333333333,1.6902941321022809,1,1,7,2,1.0,3.0,b'NB_22_ShortA.png',2820.424428132102,84612.73284396307,84612,2820.4
161,2820.440029,84613.20087,84613,2820.4333333333334,2820.973557,84629.20671,84629,2820.9666666666667,2823.00820475,84690.2461425,84690,2823.0,2.1005963501520455,3,2,3,1,1.0,2.0,b'HB_17_LongA.png',2825.108801100152,84753.26403300455,84753,2825.1
162,2825.11674925,84753.50247749999,84753,2825.1,2825.6336115,84769.008345,84769,2825.633333333333,2827.668067,84830.04201,84830,2827.6666666666665,2.074778327718377,1,1,2,1,2.0,3.0,b'NB_3_LongA.png',2829.7428453277184,84892.28535983156,84892,2829.733333333333
163,2829.76070475,84892.8211425,84892,2829.733333333333,2830.310897,84909.32690999999,84909,2830.3,2832.3453689999997,84970.36106999998,84970,2832.3333333333335,3.0513191409409046,2,1,6,2,1.0,2.0,b'SB_32_ShortA.png',2835.3966881409406,85061.90064422821,85061,2835.366666666667
164,2835.405804,85062.17412,85062,2835.4,2835.9559845,85078.679535,85078,2835.9333333333334,2837.9904324999998,85139.71297499999,85139,2837.9666666666667,2.7373189460486174,3,1,3,1,2.0,2.0,b'HB_31_LongA.png',2840.7277514460484,85221.83254338145,85221,2840.7
165,2840.73363225,85222.0089675,85222,2840.733333333333,2841.2338262499998,85237.0147875,85237,2841.233333333333,2843.2683305,85298.049915,85298,2843.266666666667,1.8381632934324443,2,1,7,2,1.0,3.0,b'SB_58_ShortA.png',2845.1064937934325,85353.19481380297,85353,2845.1
166,2845.11146875,85353.3440625,85353,2845.1,2845.61166225,85368.3498675,85368,2845.6,2847.6461715,85429.38514500001,85429,2847.633333333333,2.4693657821044326,3,1,6,2,1.0,2.0,b'HB_7_ShortA.png',2850.1155372821045,85503.46611846314,85503,2850.1
167,2850.1332039999998,85503.99612,85503,2850.1,2850.71676475,85521.5029425,85521,2850.7,2852.751206,85582.53618,85582,2852.733333333333,1.2639616122469306,1,1,7,2,1.0,3.0,b'NB_18_LongA.png',2854.015167612247,85620.4550283674,85620,2854.0
168,2854.0193405,85620.580215,85620,2854.0,2854.48618525,85634.58555749999,85634,2854.4666666666667,2856.5206909999997,85695.62073,85695,2856.5,1.8970102528110147,1,2,7,2,2.0,3.0,b'NB_6_LongA.png',2858.4177012528107,85752.53103758433,85752,2858.4
169,2858.43622325,85753.0866975,85753,2858.4333333333334,2858.936382,85768.09146,85768,2858.9333333333334,2860.9708837499998,85829.12651249999,85829,2860.9666666666667,1.3955426686443388,2,2,7,2,2.0,3.0,b'SB_10_ShortA.png',2862.366426418644,85870.99279255932,85870,2862.3333333333335
170,2862.3854035,85871.562105,85871,2862.366666666667,2862.9188717499997,85887.56615249999,85887,2862.9,2864.9533874999997,85948.601625,85948,2864.9333333333334,3.1059835143387318,3,2,3,1,1.0,2.0,b'HB_6_LongA.png',2868.0593710143385,86041.78113043016,86041,2868.0333333333333
171,2868.0652545,86041.957635,86041,2868.0333333333333,2868.59876925,86057.9630775,86057,2868.5666666666666,2870.6332475,86118.997425,86118,2870.6,0.8036632430739701,3,2,6,2,2.0,2.0,b'HB_56_LongA.png',2871.436910743074,86143.10732229221,86143,2871.4333333333334
172,2871.44364,86143.3092,86143,2871.4333333333334,2871.9437625,86158.312875,86158,2871.9333333333334,2873.97825925,86219.3477775,86219,2873.9666666666667,1.250971499364823,2,1,6,2,1.0,2.0,b'SB_45_ShortA.png',2875.229230749365,86256.87692248095,86256,2875.2
173,2875.23893375,86257.1680125,86257,2875.233333333333,2875.7724595,86273.17378499999,86273,2875.766666666667,2877.80686325,86334.2058975,86334,2877.8,1.8728495687246323,1,1,2,1,2.0,3.0,b'NB_23_ShortA.png',2879.6797128187245,86390.39138456174,86390,2879.6666666666665
174,2879.69729275,86390.9187825,86390,2879.6666666666665,2880.1808105,86405.424315,86405,2880.1666666666665,2882.21527775,86466.4583325,86466,2882.2,1.5164270200766623,1,2,7,2,2.0,3.0,b'NB_18_ShortA.png',2883.7317047700767,86511.9511431023,86511,2883.7
175,2883.74410275,86512.32308249999,86512,2883.733333333333,2884.2776222499997,86528.3286675,86528,2884.266666666667,2886.31208025,86589.3624075,86589,2886.3,1.5665656253695488,1,1,2,1,2.0,3.0,b'NB_9_ShortA.png',2887.8786458753693,86636.35937626108,86636,2887.866666666667
176,2887.888232,86636.64696,86636,2887.866666666667,2888.455121,86653.65363,86653,2888.4333333333334,2890.4895577499997,86714.68673249999,86714,2890.4666666666667,1.6228573899716139,2,1,2,1,2.0,3.0,b'SB_30_ShortA.png',2892.1124151399713,86763.37245419914,86763,2892.1
177,2892.1161602499997,86763.48480749999,86763,2892.1,2892.5996505,86777.989515,86777,2892.5666666666666,2894.63414875,86839.02446249999,86839,2894.633333333333,2.093029917217791,1,2,7,2,2.0,3.0,b'NB_5_ShortA.png',2896.7271786672177,86901.81536001652,86901,2896.7
178,2896.73898525,86902.1695575,86902,2896.733333333333,2897.272492,86918.17476,86918,2897.266666666667,2899.3069822499997,86979.2094675,86979,2899.3,3.704315841663629,3,1,3,1,2.0,2.0,b'HB_53_ShortA.png',2903.0112980916633,87090.3389427499,87090,2903.0
179,2903.0365229999998,87091.09568999999,87091,2903.0333333333333,2903.6339869999997,87109.01960999999,87109,2903.633333333333,2905.6531335,87169.59400499999,87169,2905.633333333333,1.5443399236537516,2,2,7,2,2.0,3.0,b'SB_30_LongA.png',2907.1974734236537,87215.9242027096,87215,2907.1666666666665
180,2907.26267275,87217.8801825,87217,2907.233333333333,2907.85841975,87235.7525925,87235,2907.8333333333335,2909.9195072499997,87297.58521749999,87297,2909.9,2.4327476201578975,2,1,7,2,1.0,3.0,b'SB_30_ShortA.png',2912.3522548701576,87370.56764610473,87370,2912.3333333333335
