trial_num,fixcross_time,fixation_HZ,fixation_bin,fixation_regarded,start_time,Fstart_HZ,Fstart_bin,Fstart_regarded,stop_time,Fstop_HZ,Fstop_bin,Fstop_regarded,RT,boundary_type,key,resp_value,leftright,accuracy,confidence,frameName,response_time,response_HZ,response_bin,response_regarded
1,2028.86216975,60865.865092500004,60865,2028.8333333333333,2029.3954932499998,60881.8647975,60881,2029.3666666666666,2031.4298744999999,60942.89623499999,60942,2031.4,0.7966820984820515,2,1,3,1,2.0,2.0,b'SB_49_ShortA.png',2032.226556598482,60966.79669795446,60966,2032.2
2,2032.24758075,60967.4274225,60967,2032.2333333333333,2032.8140577499998,60984.42173249999,60984,2032.8,2034.847669,61045.43007,61045,2034.8333333333333,1.9145997295599955,3,2,2,1,1.0,3.0,b'HB_60_ShortA.png',2036.76226872956,61102.8680618868,61102,2036.7333333333333
3,2036.78283625,61103.4850875,61103,2036.7666666666667,2037.3327232499998,61119.98169749999,61119,2037.3,2039.3663809999998,61180.991429999995,61180,2039.3333333333333,1.4752160685366107,1,2,7,2,2.0,3.0,b'NB_4_ShortA.png',2040.8415970685364,61225.24791205609,61225,2040.8333333333333
4,2040.8685065,61226.055195,61226,2040.8666666666666,2041.43507875,61243.0523625,61243,2041.4333333333334,2043.468611,61304.05833,61304,2043.4666666666667,-0.031275860594178084,1,1,2,1,2.0,3.0,b'NB_17_LongA.png',2043.4373351394058,61303.120054182174,61303,2043.4333333333334
5,2043.45585425,61303.67562749999,61303,2043.4333333333334,2044.02237275,61320.671182499995,61320,2044.0,2046.0557857499998,61381.673572499996,61381,2046.0333333333333,0.6219163337918872,2,1,2,1,2.0,3.0,b'SB_45_LongA.png',2046.6777020837917,61400.33106251375,61400,2046.6666666666667
6,2046.6917844999998,61400.753534999996,61400,2046.6666666666667,2047.275077,61418.25231,61418,2047.2666666666667,2049.30848525,61479.254557500004,61479,2049.3,1.3940497851854161,2,1,2,1,2.0,3.0,b'SB_38_LongA.png',2050.7025350351855,61521.07605105556,61521,2050.7
7,2050.71477025,61521.4431075,61521,2050.7,2051.2308345,61536.92503500001,61536,2051.2,2053.2643199999998,61597.929599999996,61597,2053.233333333333,0.31268326469398744,1,1,2,1,2.0,3.0,b'NB_19_LongA.png',2053.5770032646938,61607.31009794081,61607,2053.5666666666666
8,2053.5931785,61607.795354999995,61607,2053.5666666666666,2054.1098804999997,61623.29641499999,61623,2054.1,2056.14328275,61684.298482499995,61684,2056.133333333333,2.321939671817745,3,2,3,1,1.0,2.0,b'HB_35_ShortA.png',2058.4652224218175,61753.95667265452,61753,2058.4333333333334
9,2058.468338,61754.05014000001,61754,2058.4666666666667,2059.00168175,61770.0504525,61770,2059.0,2061.0351375,61831.054125,61831,2061.0333333333333,1.4232119183034229,3,2,2,1,1.0,3.0,b'HB_39_LongA.png',2062.4583494183034,61873.750482549105,61873,2062.4333333333334
10,2062.47259925,61874.177977499996,61874,2062.4666666666667,2063.0391542499997,61891.17462749999,61891,2063.0333333333333,2065.07261975,61952.17859249999,61952,2065.0666666666666,0.98671369526528,2,1,3,1,2.0,2.0,b'SB_1_ShortA.png',2066.059333445265,61981.780003357955,61981,2066.0333333333333
11,2066.07000475,61982.1001425,61982,2066.0666666666666,2066.6363845,61999.091535,61999,2066.633333333333,2068.6698069999998,62060.094209999996,62060,2068.6666666666665,0.20687800902123854,2,1,2,1,2.0,3.0,b'SB_48_LongA.png',2068.876685009021,62066.30055027063,62066,2068.866666666667
12,2068.8798865,62066.396595,62066,2068.866666666667,2069.4131355,62082.394065,62082,2069.4,2071.446782,62143.40346,62143,2071.4333333333334,1.1683639176571887,2,1,2,1,2.0,3.0,b'SB_35_LongA.png',2072.615145917657,62178.45437752971,62178,2072.6
13,2072.62306275,62178.691882499996,62178,2072.6,2073.139742,62194.192259999996,62194,2073.133333333333,2075.173104,62255.193119999996,62255,2075.1666666666665,1.3573788778085145,3,2,2,1,1.0,3.0,b'HB_48_ShortA.png',2076.5304828778085,62295.91448633425,62295,2076.5
14,2076.53950175,62296.1850525,62296,2076.5333333333333,2077.05613175,62311.6839525,62311,2077.0333333333333,2079.0897855,62372.693564999994,62372,2079.0666666666666,1.801853479573765,3,1,7,2,1.0,3.0,b'HB_17_ShortA.png',2080.8916389795736,62426.74916938721,62426,2080.866666666667
15,2080.90775825,62427.2327475,62427,2080.9,2081.44093325,62443.2279975,62443,2081.4333333333334,2083.47483375,62504.2450125,62504,2083.4666666666667,2.067507553840187,3,1,7,2,1.0,3.0,b'HB_1_LongA.png',2085.54234130384,62566.270239115205,62566,2085.5333333333333
16,2085.556309,62566.68927,62566,2085.5333333333333,2086.0396729999998,62581.190189999994,62581,2086.0333333333333,2088.07335875,62642.2007625,62642,2088.0666666666666,0.9444422197684617,2,1,3,1,2.0,2.0,b'SB_10_ShortA.png',2089.0178009697684,62670.53402909305,62670,2089.0
17,2089.0270875,62670.812625000006,62670,2089.0,2089.52702175,62685.810652500004,62685,2089.5,2091.560576,62746.817279999996,62746,2091.5333333333333,-0.14910034685999562,1,1,2,1,2.0,3.0,b'NB_29_ShortA.png',2091.41147565314,62742.34426959419,62742,2091.4
18,2091.4194755,62742.584265,62742,2091.4,2091.9859625,62759.578875,62759,2091.9666666666667,2094.01953425,62820.5860275,62820,2094.0,-0.7101095094803895,1,1,2,1,2.0,3.0,b'NB_8_LongA.png',2093.3094247405197,62799.28274221559,62799,2093.3
19,2093.31351275,62799.4053825,62799,2093.3,2093.8301975,62814.905925,62814,2093.8,2095.863797,62875.91391,62875,2095.8333333333335,1.1588834223875892,2,1,2,1,2.0,3.0,b'SB_28_ShortA.png',2097.0226804223876,62910.68041267163,62910,2097.0
20,2097.03259075,62910.9777225,62910,2097.0,2097.56593825,62926.97814749999,62926,2097.5333333333333,2099.5995595,62987.986785,62987,2099.5666666666666,1.0944123480840062,3,1,6,2,1.0,2.0,b'HB_22_ShortA.png',2100.693971848084,63020.81915544252,63020,2100.6666666666665
21,2100.7015497499997,63021.04649249999,63021,2100.7,2101.1847589999998,63035.54276999999,63035,2101.1666666666665,2103.21847625,63096.5542875,63096,2103.2,1.5314550018847513,1,1,2,1,2.0,3.0,b'NB_20_LongA.png',2104.749931251885,63142.497937556545,63142,2104.733333333333
22,2104.7597862499997,63142.79358749999,63142,2104.733333333333,2105.3597085,63160.791255000004,63160,2105.3333333333335,2107.39326175,63221.7978525,63221,2107.366666666667,2.008747402140216,3,1,6,2,1.0,2.0,b'HB_23_ShortA.png',2109.40200915214,63282.0602745642,63282,2109.4
23,2109.4087517499997,63282.26255249999,63282,2109.4,2110.0085854999998,63300.25756499999,63300,2110.0,2112.0425287499997,63361.27586249999,63361,2112.0333333333333,0.7544221559437574,3,1,3,1,2.0,2.0,b'HB_54_LongA.png',2112.7969509059435,63383.908527178304,63383,2112.766666666667
24,2112.80024225,63384.0072675,63384,2112.8,2113.3167679999997,63399.50303999999,63399,2113.3,2115.3502625,63460.507875,63460,2115.3333333333335,1.049798914220446,3,2,2,1,1.0,3.0,b'HB_18_ShortA.png',2116.4000614142205,63492.001842426616,63492,2116.4
25,2116.42810375,63492.8431125,63492,2116.4,2117.028006,63510.84018,63510,2117.0,2119.0616645,63571.849935,63571,2119.0333333333333,0.5462015904231521,2,1,2,1,2.0,3.0,b'SB_27_LongA.png',2119.607866090423,63588.23598271269,63588,2119.6
26,2119.6156794999997,63588.47038499999,63588,2119.6,2120.14892125,63604.4676375,63604,2120.133333333333,2122.1824512499998,63665.473537499995,63665,2122.1666666666665,1.5939177786385699,3,2,3,1,1.0,2.0,b'HB_2_LongA.png',2123.7763690286383,63713.29107085915,63713,2123.766666666667
27,2123.78929975,63713.6789925,63713,2123.766666666667,2124.289172,63728.67515999999,63728,2124.266666666667,2126.32248175,63789.674452499996,63789,2126.3,1.4022504165168357,3,1,2,1,2.0,3.0,b'HB_50_LongA.png',2127.724732166517,63831.741964995505,63831,2127.7
28,2127.741571,63832.24713,63832,2127.733333333333,2128.2248947499997,63846.74684249999,63846,2128.2,2130.25857525,63907.757257499994,63907,2130.233333333333,0.37902973545169516,2,2,7,2,2.0,3.0,b'SB_41_LongA.png',2130.6376049854516,63919.12814956355,63919,2130.633333333333
29,2130.64972975,63919.4918925,63919,2130.633333333333,2131.19957875,63935.987362500004,63935,2131.1666666666665,2133.23309325,63996.992797499996,63996,2133.2,1.2504761874042742,2,2,7,2,2.0,3.0,b'SB_42_ShortA.png',2134.483569437404,64034.507083122124,64034,2134.4666666666667
30,2134.49679575,64034.90387249999,64034,2134.4666666666667,2134.99678675,64049.903602499995,64049,2134.9666666666667,2137.0304785,64110.91435499999,64110,2137.0,0.8662897414051258,1,1,2,1,2.0,3.0,b'NB_22_ShortA.png',2137.896768241405,64136.90304724215,64136,2137.866666666667
31,2137.9056745,64137.170235,64137,2137.9,2138.43898325,64153.1694975,64153,2138.4333333333334,2140.4726942499997,64214.18082749999,64214,2140.4666666666667,1.6028498018440587,1,2,7,2,2.0,3.0,b'NB_9_LongA.png',2142.0755440518437,64262.26632155531,64262,2142.0666666666666
32,2142.09232825,64262.76984749999,64262,2142.0666666666666,2142.6588939999997,64279.76681999999,64279,2142.633333333333,2144.692314,64340.76942,64340,2144.6666666666665,-0.6401167583171627,3,2,7,2,2.0,3.0,b'HB_20_LongA.png',2144.0521972416827,64321.56591725048,64321,2144.0333333333333
33,2144.06867675,64322.0603025,64322,2144.0666666666666,2144.585286,64337.55858,64337,2144.5666666666666,2146.6189907499997,64398.56972249999,64398,2146.6,2.5370030235408194,3,1,4,1,2.0,1.0,b'HB_31_ShortA.png',2149.1559937735406,64474.67981320622,64474,2149.133333333333
34,2149.160145,64474.80434999999,64474,2149.133333333333,2149.7600454999997,64492.80136499999,64492,2149.733333333333,2151.79348675,64553.80460249999,64553,2151.766666666667,1.1809074387874716,1,1,2,1,2.0,3.0,b'NB_12_ShortA.png',2152.9743941887873,64589.23182566362,64589,2152.9666666666667
35,2152.9794389999997,64589.383169999994,64589,2152.9666666666667,2153.52931425,64605.8794275,64605,2153.5,2155.5629695,64666.889084999995,64666,2155.5333333333333,0.9128784318600083,2,1,3,1,2.0,2.0,b'SB_18_LongA.png',2156.47584793186,64694.275437955795,64694,2156.4666666666667
36,2156.49021925,64694.706577499994,64694,2156.4666666666667,2156.97354975,64709.2064925,64709,2156.9666666666667,2159.0072809999997,64770.21842999999,64770,2159.0,2.973507119100759,1,2,6,2,2.0,2.0,b'NB_30_LongA.png',2161.9807881191005,64859.42364357301,64859,2161.9666666666667
37,2161.9985082499998,64859.955247499995,64859,2161.9666666666667,2162.51503475,64875.4510425,64875,2162.5,2164.54861675,64936.4585025,64936,2164.5333333333333,0.2410399694545049,1,2,7,2,2.0,3.0,b'NB_11_ShortA.png',2164.7896567194543,64943.68970158363,64943,2164.766666666667
38,2164.80591025,64944.1773075,64944,2164.8,2165.35580875,64960.674262500004,64960,2165.3333333333335,2167.3894327499997,65021.682982499995,65021,2167.366666666667,0.6918339495423425,1,1,2,1,2.0,3.0,b'NB_27_ShortA.png',2168.081266699542,65042.438000986265,65042,2168.0666666666666
39,2168.093289,65042.79867,65042,2168.0666666666666,2168.60986025,65058.295807500006,65058,2168.6,2170.643679,65119.31036999999,65119,2170.633333333333,2.645929942797011,1,2,7,2,2.0,3.0,b'NB_10_ShortA.png',2173.289608942797,65198.688268283906,65198,2173.266666666667
40,2173.30049675,65199.0149025,65199,2173.3,2173.8503809999997,65215.51142999999,65215,2173.8333333333335,2175.8841005,65276.523015,65276,2175.866666666667,2.1766770625854406,1,1,2,1,2.0,3.0,b'NB_4_LongA.png',2178.0607775625854,65341.82332687756,65341,2178.0333333333333
41,2178.0763537499997,65342.29061249999,65342,2178.0666666666666,2178.64292,65359.287599999996,65359,2178.633333333333,2180.6765365,65420.296095000005,65420,2180.6666666666665,2.019318364085848,3,1,2,1,2.0,3.0,b'HB_9_ShortA.png',2182.695854864086,65480.87564592258,65480,2182.6666666666665
42,2182.71506475,65481.451942499996,65481,2182.7,2183.2815594999997,65498.44678499999,65498,2183.266666666667,2185.315178,65559.45534,65559,2185.3,0.6960471650927502,2,2,7,2,2.0,3.0,b'SB_15_LongA.png',2186.0112251650926,65580.33675495278,65580,2186.0
43,2186.01295,65580.3885,65580,2186.0,2186.59627675,65597.8883025,65597,2186.5666666666666,2188.6299449999997,65658.89834999999,65658,2188.6,1.912999240692443,3,2,5,2,2.0,1.0,b'HB_38_ShortA.png',2190.542944240692,65716.28832722077,65716,2190.5333333333333
44,2190.54648075,65716.39442249999,65716,2190.5333333333333,2191.07977125,65732.3931375,65732,2191.0666666666666,2193.1133219999997,65793.39966,65793,2193.1,-1.7471009311411763,1,2,7,2,2.0,3.0,b'NB_21_ShortA.png',2191.3662210688585,65740.98663206576,65740,2191.3333333333335
45,2191.37141875,65741.1425625,65741,2191.366666666667,2191.888082,65756.64246,65756,2191.866666666667,2193.92162,65817.6486,65817,2193.9,0.2453734248138062,2,2,7,2,2.0,3.0,b'SB_6_ShortA.png',2194.166993424814,65825.00980274442,65825,2194.1666666666665
46,2194.17309,65825.1927,65825,2194.1666666666665,2194.7229155,65841.687465,65841,2194.7,2196.756478,65902.69433999999,65902,2196.733333333333,0.400624182604588,2,1,3,1,2.0,2.0,b'SB_24_ShortA.png',2197.1571021826044,65914.71306547814,65914,2197.133333333333
47,2197.1601862499997,65914.80558749998,65914,2197.133333333333,2197.6934269999997,65930.80281,65930,2197.6666666666665,2199.72699875,65991.8099625,65991,2199.7,1.4084270915009256,2,1,2,1,2.0,3.0,b'SB_21_LongA.png',2201.135425841501,66034.06277524502,66034,2201.133333333333
48,2201.14992175,66034.4976525,66034,2201.133333333333,2201.74988675,66052.4966025,66052,2201.733333333333,2203.7835274999998,66113.505825,66113,2203.766666666667,0.8993082034630788,2,1,7,2,1.0,3.0,b'SB_44_ShortA.png',2204.682835703463,66140.48507110389,66140,2204.6666666666665
49,2204.6873135,66140.619405,66140,2204.6666666666665,2205.2371405,66157.114215,66157,2205.233333333333,2207.2707845,66218.123535,66218,2207.266666666667,1.3154318205924938,3,1,4,1,2.0,1.0,b'HB_14_LongA.png',2208.5862163205925,66257.58648961778,66257,2208.5666666666666
50,2208.602571,66258.07712999999,66258,2208.6,2209.1024872499997,66273.0746175,66273,2209.1,2211.13616475,66334.08494249999,66334,2211.133333333333,0.7348890747180121,2,1,2,1,2.0,3.0,b'SB_59_ShortA.png',2211.871053824718,66356.13161474153,66356,2211.866666666667
51,2211.8844415,66356.533245,66356,2211.866666666667,2212.40114425,66372.0343275,66372,2212.4,2214.4347735,66433.04320500001,66433,2214.4333333333334,0.26321703944449837,2,1,6,2,1.0,2.0,b'SB_50_LongA.png',2214.6979905394446,66440.93971618333,66440,2214.6666666666665
52,2214.7155562499997,66441.4666875,66441,2214.7,2215.23221075,66456.9663225,66456,2215.2,2217.26567225,66517.9701675,66517,2217.233333333333,2.026816158419024,1,2,7,2,2.0,3.0,b'NB_22_LongA.png',2219.292488408419,66578.77465225257,66578,2219.266666666667
53,2219.30217675,66579.06530249999,66579,2219.3,2219.8354047499997,66595.06214249998,66595,2219.8333333333335,2221.8690189999998,66656.07057,66656,2221.866666666667,2.7744312358117895,1,1,2,1,2.0,3.0,b'NB_13_ShortA.png',2224.6434502358115,66739.30350707435,66739,2224.633333333333
54,2224.6563765,66739.691295,66739,2224.633333333333,2225.25629725,66757.6889175,66757,2225.233333333333,2227.2900247499997,66818.70074249999,66818,2227.266666666667,1.4115198959752888,3,2,3,1,1.0,2.0,b'HB_49_ShortA.png',2228.701544645975,66861.04633937925,66861,2228.7
55,2228.7105794999998,66861.31738499999,66861,2228.7,2229.2438469999997,66877.31541,66877,2229.233333333333,2231.2775644999997,66938.32693499999,66938,2231.266666666667,0.4744258588216326,3,1,6,2,1.0,2.0,b'HB_32_ShortA.png',2231.7519903588213,66952.55971076465,66952,2231.733333333333
56,2231.75820975,66952.7462925,66952,2231.733333333333,2232.3580635,66970.741905,66970,2232.3333333333335,2234.39181,67031.7543,67031,2234.366666666667,1.1598324506539939,1,2,6,2,2.0,2.0,b'NB_24_ShortA.png',2235.551642450654,67066.54927351962,67066,2235.5333333333333
57,2235.55441475,67066.6324425,67066,2235.5333333333333,2236.0877075,67082.63122499999,67082,2236.0666666666666,2238.121208,67143.63624,67143,2238.1,1.277888829825315,2,2,3,1,1.0,2.0,b'SB_11_ShortA.png',2239.3990968298253,67181.97290489476,67181,2239.366666666667
58,2239.4045535,67182.136605,67182,2239.4,2239.97122175,67199.1366525,67199,2239.9666666666667,2242.0047047499997,67260.1411425,67260,2242.0,0.23228882786315808,2,2,2,1,1.0,3.0,b'SB_20_LongA.png',2242.236993577863,67267.10980733589,67267,2242.233333333333
59,2242.24684025,67267.40520749999,67267,2242.233333333333,2242.7634295,67282.90288499999,67282,2242.733333333333,2244.7969645,67343.908935,67343,2244.766666666667,0.9894114049075142,2,1,2,1,2.0,3.0,b'SB_52_ShortA.png',2245.7863759049073,67373.59127714722,67373,2245.766666666667
60,2245.7927615,67373.782845,67373,2245.766666666667,2246.3759487499997,67391.27846249999,67391,2246.366666666667,2248.40941575,67452.2824725,67452,2248.4,0.5382765643626044,2,1,2,1,2.0,3.0,b'SB_23_LongA.png',2248.9476923143625,67468.43076943088,67468,2248.9333333333334
61,2248.96009475,67468.8028425,67468,2248.9333333333334,2249.4932034999997,67484.79610499999,67484,2249.4666666666667,2251.5266564999997,67545.799695,67545,2251.5,1.5369232256180112,3,1,7,2,1.0,3.0,b'HB_43_LongA.png',2253.0635797256177,67591.90739176853,67591,2253.0333333333333
62,2253.07580125,67592.2740375,67592,2253.0666666666666,2253.60904725,67608.2714175,67608,2253.6,2255.6425099999997,67669.2753,67669,2255.633333333333,0.6609020375708496,1,2,7,2,2.0,3.0,b'NB_19_ShortA.png',2256.3034120375705,67689.10236112712,67689,2256.3
63,2256.30639825,67689.19194749999,67689,2256.3,2256.839848,67705.19544,67705,2256.8333333333335,2258.8733644999998,67766.20093499999,67766,2258.866666666667,0.8840759386293939,2,2,2,1,1.0,3.0,b'SB_36_LongA.png',2259.757440438629,67792.72321315887,67792,2259.733333333333
64,2259.7616605,67792.849815,67792,2259.733333333333,2260.2448555,67807.345665,67807,2260.233333333333,2262.278531,67868.35592999999,67868,2262.266666666667,0.5637038080039929,2,2,7,2,2.0,3.0,b'SB_53_LongA.png',2262.842234808004,67885.26704424011,67885,2262.8333333333335
65,2262.84781175,67885.4343525,67885,2262.8333333333335,2263.36426825,67900.9280475,67900,2263.3333333333335,2265.3976555,67961.929665,67961,2265.366666666667,0.06751963654096471,2,2,3,1,1.0,2.0,b'SB_54_ShortA.png',2265.465175136541,67963.95525409623,67963,2265.4333333333334
66,2265.47136225,67964.1408675,67964,2265.4666666666667,2265.9712445,67979.137335,67979,2265.9666666666667,2268.00466925,68040.1400775,68040,2268.0,1.3452397414548614,1,1,2,1,2.0,3.0,b'NB_15_ShortA.png',2269.349908991455,68080.49726974365,68080,2269.3333333333335
67,2269.3659159999997,68080.97747999999,68080,2269.3333333333335,2269.9158199999997,68097.47459999999,68097,2269.9,2271.94937625,68158.4812875,68158,2271.9333333333334,0.3826315291807987,2,2,2,1,1.0,3.0,b'SB_30_ShortA.png',2272.332007779181,68169.96023337543,68169,2272.3
68,2272.339008,68170.17023999999,68170,2272.3333333333335,2272.90562525,68187.1687575,68187,2272.9,2274.9391265,68248.173795,68248,2274.9333333333334,-0.3389414793746255,1,2,6,2,2.0,2.0,b'NB_26_LongA.png',2274.6001850206253,68238.00555061876,68238,2274.6
69,2274.61325575,68238.3976725,68238,2274.6,2275.11318925,68253.3956775,68253,2275.1,2277.1467985,68314.403955,68314,2277.133333333333,1.5494224131780356,1,1,3,1,2.0,2.0,b'NB_16_LongA.png',2278.696220913178,68360.88662739535,68360,2278.6666666666665
70,2278.7030285,68361.090855,68361,2278.7,2279.26957675,68378.0873025,68378,2279.266666666667,2281.3032175,68439.096525,68439,2281.3,1.7454315723680338,3,2,6,2,2.0,2.0,b'HB_33_LongA.png',2283.048649072368,68491.45947217103,68491,2283.0333333333333
71,2283.0551185,68491.653555,68491,2283.0333333333333,2283.58845175,68507.65355249999,68507,2283.5666666666666,2285.62188475,68568.6565425,68568,2285.6,0.31523184428988316,2,2,7,2,2.0,3.0,b'SB_29_LongA.png',2285.93711659429,68578.1134978287,68578,2285.9333333333334
72,2285.9471025,68578.41307499999,68578,2285.9333333333334,2286.4636567499997,68593.9097025,68593,2286.4333333333334,2288.49728,68654.9184,68654,2288.4666666666667,-0.5498095896236919,1,2,7,2,2.0,3.0,b'NB_30_ShortA.png',2287.9474704103764,68638.42411231129,68638,2287.9333333333334
73,2287.965287,68638.95861,68638,2287.9333333333334,2288.5153379999997,68655.46014,68655,2288.5,2290.5655825,68716.967475,68716,2290.5333333333333,2.256759071822671,2,1,6,2,1.0,2.0,b'SB_57_ShortA.png',2292.8223415718226,68784.67024715467,68784,2292.8
74,2292.832187,68784.96561,68784,2292.8,2293.3654775,68800.964325,68800,2293.3333333333335,2295.39901475,68861.9704425,68861,2295.366666666667,1.7463434285764379,3,2,2,1,1.0,3.0,b'HB_8_ShortA.png',2297.1453581785763,68914.36074535729,68914,2297.133333333333
75,2297.1501355,68914.504065,68914,2297.133333333333,2297.7498997499997,68932.49699249999,68932,2297.733333333333,2299.7834625,68993.503875,68993,2299.766666666667,1.364538913467186,2,1,3,1,2.0,2.0,b'SB_56_ShortA.png',2301.1480014134672,69034.44004240402,69034,2301.133333333333
76,2301.1624362499997,69034.87308749999,69034,2301.133333333333,2301.72894025,69051.8682075,69051,2301.7,2303.76248925,69112.87467749999,69112,2303.733333333333,0.7357827120358706,1,1,2,1,2.0,3.0,b'NB_25_LongA.png',2304.4982719620357,69134.94815886107,69134,2304.4666666666667
77,2304.5127212499997,69135.38163749999,69135,2304.5,2305.0959715,69152.879145,69152,2305.0666666666666,2307.129404,69213.88212,69213,2307.1,1.79674034476011,1,1,2,1,2.0,3.0,b'NB_9_ShortA.png',2308.92614434476,69267.7843303428,69267,2308.9
78,2308.9289515,69267.868545,69267,2308.9,2309.478951,69284.36853,69284,2309.4666666666667,2311.51254775,69345.37643250001,69345,2311.5,0.4506071529849578,2,2,2,1,1.0,3.0,b'SB_55_LongA.png',2311.963154902985,69358.89464708955,69358,2311.9333333333334
79,2311.981222,69359.43665999999,69359,2311.9666666666667,2312.5643487499997,69376.9304625,69376,2312.5333333333333,2314.5978755,69437.936265,69437,2314.5666666666666,1.498438650609387,1,2,7,2,2.0,3.0,b'NB_2_ShortA.png',2316.0963141506095,69482.88942451829,69482,2316.0666666666666
80,2316.1137679999997,69483.41303999998,69483,2316.1,2316.59702875,69497.9108625,69497,2316.5666666666666,2318.6305414999997,69558.91624499999,69558,2318.6,-1.7219227848727314,1,2,6,2,2.0,2.0,b'NB_5_LongA.png',2316.908618715127,69507.25856145381,69507,2316.9
81,2316.9175625,69507.526875,69507,2316.9,2317.5007705,69525.02311499999,69525,2317.5,2319.53427675,69586.02830250001,69586,2319.5333333333333,0.794995748625297,1,1,3,1,2.0,2.0,b'NB_5_ShortA.png',2320.3292724986254,69609.87817495877,69609,2320.3
82,2320.33408325,69610.0224975,69610,2320.3333333333335,2320.8839815,69626.519445,69626,2320.866666666667,2322.91772675,69687.5318025,69687,2322.9,1.7039813777610107,2,1,2,1,2.0,3.0,b'SB_31_LongA.png',2324.621708127761,69738.65124383284,69738,2324.6
83,2324.6313145,69738.939435,69738,2324.6,2325.1479645,69754.438935,69754,2325.133333333333,2327.18161925,69815.4485775,69815,2327.1666666666665,1.8459433911320957,2,2,6,2,2.0,2.0,b'SB_3_LongA.png',2329.027562641132,69870.82687923397,69870,2329.0
84,2329.0329745,69870.989235,69870,2329.0,2329.566358,69886.99074000001,69886,2329.5333333333333,2331.59992775,69947.9978325,69947,2331.5666666666666,0.7553529295946646,3,1,2,1,2.0,3.0,b'HB_56_LongA.png',2332.3552806795947,69970.65842038784,69970,2332.3333333333335
85,2332.373724,69971.21172,69971,2332.366666666667,2332.940325,69988.20975,69988,2332.9333333333334,2334.973751,70049.21253,70049,2334.9666666666667,0.25539396443855367,1,1,2,1,2.0,3.0,b'NB_7_LongA.png',2335.2291449644385,70056.87434893315,70056,2335.2
86,2335.239006,70057.17017999999,70057,2335.233333333333,2335.738794,70072.16382,70072,2335.733333333333,2337.77230125,70133.1690375,70133,2337.766666666667,0.46883564523159293,1,1,2,1,2.0,3.0,b'NB_11_LongA.png',2338.2411368952316,70147.23410685695,70147,2338.233333333333
87,2338.247714,70147.43142000001,70147,2338.233333333333,2338.7976114999997,70163.928345,70163,2338.766666666667,2340.8311335,70224.93400499999,70224,2340.8,1.3046754467759456,3,1,5,2,1.0,1.0,b'HB_47_ShortA.png',2342.135808946776,70264.07426840327,70264,2342.133333333333
88,2342.1425865,70264.277595,70264,2342.133333333333,2342.7258315,70281.774945,70281,2342.7,2344.759293,70342.77879,70342,2344.733333333333,1.4226357014358655,3,1,2,1,2.0,3.0,b'HB_6_ShortA.png',2346.181928701436,70385.45786104308,70385,2346.1666666666665
89,2346.19603875,70385.8811625,70385,2346.1666666666665,2346.7793604999997,70403.380815,70403,2346.766666666667,2348.8128945,70464.386835,70464,2348.8,1.2428580672712997,3,2,2,1,1.0,3.0,b'HB_36_ShortA.png',2350.055752567271,70501.67257701814,70501,2350.0333333333333
90,2350.06699625,70502.0098875,70502,2350.0666666666666,2350.566925,70517.00775,70517,2350.5666666666666,2352.6005569999998,70578.01671,70578,2352.6,0.6266056044423749,2,1,2,1,2.0,3.0,b'SB_60_LongA.png',2353.227162604442,70596.81487813327,70596,2353.2
91,2353.244233,70597.32699,70597,2353.233333333333,2353.82751075,70614.8253225,70614,2353.8,2355.8609275,70675.827825,70675,2355.8333333333335,-0.31096355720364954,3,1,4,1,2.0,1.0,b'HB_16_LongA.png',2355.5499639427962,70666.49891828389,70666,2355.5333333333333
92,2355.5679335,70667.038005,70667,2355.5666666666666,2356.1012299999998,70683.03689999999,70683,2356.1,2358.1348494999997,70744.045485,70744,2358.133333333333,0.730855472609619,1,2,7,2,2.0,3.0,b'NB_1_ShortA.png',2358.8657049726094,70765.97114917828,70765,2358.8333333333335
93,2358.87955775,70766.3867325,70766,2358.866666666667,2359.39614825,70781.8844475,70781,2359.366666666667,2361.42972,70842.8916,70842,2361.4,1.8140273861190508,3,1,2,1,2.0,3.0,b'HB_37_ShortA.png',2363.243747386119,70897.31242158357,70897,2363.233333333333
94,2363.253404,70897.60212,70897,2363.233333333333,2363.76998475,70913.0995425,70913,2363.766666666667,2365.803575,70974.10725,70974,2365.8,1.6440391329761042,3,2,4,1,1.0,1.0,b'HB_26_LongA.png',2367.447614132976,71023.42842398927,71023,2367.4333333333334
95,2367.4514755,71023.544265,71023,2367.4333333333334,2367.967991,71039.03973,71039,2367.9666666666667,2370.00138075,71100.0414225,71100,2370.0,1.721762331590071,3,2,5,2,2.0,1.0,b'HB_46_LongA.png',2371.72314308159,71151.6942924477,71151,2371.7
96,2371.73290275,71151.9870825,71151,2371.7,2372.26606,71167.9818,71167,2372.233333333333,2374.299508,71228.98524000001,71228,2374.266666666667,0.934662591702363,3,1,7,2,1.0,3.0,b'HB_11_LongA.png',2375.2341705917024,71257.02511775107,71257,2375.233333333333
97,2375.23774,71257.13220000001,71257,2375.233333333333,2375.7543345,71272.630035,71272,2375.733333333333,2377.787793,71333.63378999999,71333,2377.766666666667,0.47491939691462903,2,2,7,2,2.0,3.0,b'SB_34_ShortA.png',2378.2627123969146,71347.88137190744,71347,2378.233333333333
98,2378.290493,71348.71479,71348,2378.266666666667,2378.84045775,71365.21373250001,71365,2378.8333333333335,2380.87412225,71426.22366749999,71426,2380.866666666667,0.15494321765254426,1,1,7,2,1.0,3.0,b'NB_3_LongA.png',2381.0290654676523,71430.87196402957,71430,2381.0
99,2381.0374415,71431.12324500001,71431,2381.0333333333333,2381.58732375,71447.6197125,71447,2381.5666666666666,2383.6209175,71508.627525,71508,2383.6,-0.45518340554735914,2,2,3,1,1.0,2.0,b'SB_12_LongA.png',2383.1657340944525,71494.97202283358,71494,2383.133333333333
100,2383.1827169999997,71495.48150999998,71495,2383.1666666666665,2383.7160049999998,71511.48014999999,71511,2383.7,2385.7496805,71572.49041500001,71572,2385.733333333333,1.9484162196749821,3,1,3,1,2.0,2.0,b'HB_7_LongA.png',2387.698096719675,71630.94290159026,71630,2387.6666666666665
101,2387.700687,71631.02061,71631,2387.7,2388.2172775,71646.518325,71646,2388.2,2390.25088075,71707.5264225,71707,2390.233333333333,1.028008778263029,3,1,7,2,1.0,3.0,b'HB_52_LongA.png',2391.278889528263,71738.36668584788,71738,2391.266666666667
102,2391.2858739999997,71738.57621999999,71738,2391.266666666667,2391.80241225,71754.0723675,71754,2391.8,2393.8360395,71815.081185,71815,2393.8333333333335,0.7297775918468687,2,2,6,2,2.0,2.0,b'SB_25_ShortA.png',2394.565817091847,71836.9745127554,71836,2394.5333333333333
103,2394.57711025,71837.3133075,71837,2394.5666666666666,2395.1437594999998,71854.31278499999,71854,2395.133333333333,2397.177284,71915.31852,71915,2397.1666666666665,0.5488334985111578,3,2,7,2,2.0,3.0,b'HB_4_LongA.png',2397.726117498511,71931.78352495533,71931,2397.7
104,2397.7303414999997,71931.91024499999,71931,2397.7,2398.2802505,71948.407515,71948,2398.266666666667,2400.3137925,72009.41377500001,72009,2400.3,0.580906988499919,3,2,5,2,2.0,1.0,b'HB_57_LongA.png',2400.8946994885,72026.840984655,72026,2400.866666666667
105,2400.901004,72027.03012,72027,2400.9,2401.38431775,72041.52953249999,72041,2401.366666666667,2403.41783475,72102.5350425,72102,2403.4,0.5632219977287605,1,2,2,1,1.0,3.0,b'NB_26_ShortA.png',2403.981056747729,72119.43170243187,72119,2403.9666666666667
106,2403.9898485,72119.695455,72119,2403.9666666666667,2404.4897539999997,72134.69261999999,72134,2404.4666666666667,2406.52338225,72195.7014675,72195,2406.5,0.29244135986300535,1,2,7,2,2.0,3.0,b'NB_8_ShortA.png',2406.815823609863,72204.4747082959,72204,2406.8
107,2406.8270315,72204.810945,72204,2406.8,2407.42698225,72222.8094675,72222,2407.4,2409.460584,72283.81752,72283,2409.4333333333334,2.3535658831151522,3,2,2,1,1.0,3.0,b'HB_41_ShortA.png',2411.814149883115,72354.42449649345,72354,2411.8
108,2411.82390525,72354.7171575,72354,2411.8,2412.340507,72370.21521,72370,2412.3333333333335,2414.373992,72431.21975999999,72431,2414.366666666667,0.5816408194514224,2,2,2,1,1.0,3.0,b'SB_14_LongA.png',2414.9556328194512,72448.66898458354,72448,2414.9333333333334
109,2414.96125075,72448.8375225,72448,2414.9333333333334,2415.5612244999998,72466.83673499999,72466,2415.5333333333333,2417.594718,72527.84154,72527,2417.5666666666666,0.4821348465993651,1,2,6,2,2.0,2.0,b'NB_2_LongA.png',2418.076852846599,72542.30558539797,72542,2418.0666666666666
110,2418.0836065,72542.508195,72542,2418.0666666666666,2418.61670925,72558.5012775,72558,2418.6,2420.65037975,72619.5113925,72619,2420.633333333333,0.8224610303168447,3,1,4,1,2.0,1.0,b'HB_25_LongA.png',2421.472840780317,72644.1852234095,72644,2421.4666666666667
111,2421.4884632499998,72644.65389749999,72644,2421.4666666666667,2422.021684,72660.65052,72660,2422.0,2424.05511425,72721.6534275,72721,2424.0333333333333,1.7793355447647627,2,1,2,1,2.0,3.0,b'SB_47_ShortA.png',2425.8344497947646,72775.03349384294,72775,2425.8333333333335
112,2425.8416665,72775.249995,72775,2425.8333333333335,2426.3749995,72791.249985,72791,2426.366666666667,2428.408615,72852.25845,72852,2428.4,0.45607674292477896,2,1,6,2,1.0,2.0,b'SB_43_ShortA.png',2428.8646917429246,72865.94075228774,72865,2428.8333333333335
113,2428.8729022499997,72866.1870675,72866,2428.866666666667,2429.406129,72882.18387,72882,2429.4,2431.43944325,72943.1832975,72943,2431.4333333333334,1.877981687484862,1,2,6,2,2.0,2.0,b'NB_7_ShortA.png',2433.3174249374847,72999.52274812454,72999,2433.3
114,2433.33562325,73000.0686975,73000,2433.3333333333335,2433.93551675,73018.06550249999,73018,2433.9333333333334,2435.96891375,73079.0674125,73079,2435.9666666666667,0.9163226300606766,1,2,2,1,1.0,3.0,b'NB_21_LongA.png',2436.8852363800606,73106.55709140182,73106,2436.866666666667
115,2436.90243925,73107.0731775,73107,2436.9,2437.4358545,73123.075635,73123,2437.4333333333334,2439.4693764999997,73184.081295,73184,2439.4666666666667,0.2596138985500147,1,2,2,1,1.0,3.0,b'NB_12_LongA.png',2439.7289903985497,73191.86971195649,73191,2439.7
116,2439.743193,73192.29578999999,73192,2439.733333333333,2440.2597185,73207.791555,73207,2440.233333333333,2442.2932137499997,73268.79641249999,73268,2442.266666666667,0.7156308270423324,3,1,2,1,2.0,3.0,b'HB_40_ShortA.png',2443.008844577042,73290.26533731126,73290,2443.0
117,2443.02191125,73290.6573375,73290,2443.0,2443.5050735,73305.152205,73305,2443.5,2445.53861225,73366.1583675,73366,2445.5333333333333,0.6104187456949148,1,1,6,2,1.0,2.0,b'NB_14_ShortA.png',2446.149030995695,73384.47092987085,73384,2446.133333333333
118,2446.161972,73384.85915999999,73384,2446.133333333333,2446.74525225,73402.35756749999,73402,2446.733333333333,2448.77876975,73463.36309249999,73463,2448.766666666667,1.3763073804930173,2,1,7,2,1.0,3.0,b'SB_39_LongA.png',2450.155077130493,73504.65231391479,73504,2450.133333333333
119,2450.169799,73505.09396999999,73505,2450.1666666666665,2450.73634725,73522.0904175,73522,2450.733333333333,2452.76997875,73583.0993625,73583,2452.766666666667,1.9878826308540738,3,1,5,2,1.0,1.0,b'HB_53_ShortA.png',2454.757861380854,73642.73584142563,73642,2454.733333333333
120,2454.7681829999997,73643.04548999999,73643,2454.766666666667,2455.334822,73660.04466,73660,2455.3333333333335,2457.3682142499997,73721.0464275,73721,2457.366666666667,0.34646172253997065,3,2,3,1,1.0,2.0,b'HB_34_ShortA.png',2457.7146759725397,73731.4402791762,73731,2457.7
121,2457.73139525,73731.9418575,73731,2457.7,2458.26466325,73747.93989750001,73747,2458.233333333333,2460.2980977499997,73808.9429325,73808,2460.266666666667,-0.015956631481458317,2,1,6,2,1.0,2.0,b'SB_9_ShortA.png',2460.282141118518,73808.46423355554,73808,2460.266666666667
122,2460.28518475,73808.5555425,73808,2460.266666666667,2460.801821,73824.05463,73824,2460.8,2462.8352649999997,73885.05794999999,73885,2462.8333333333335,0.6429477709843923,2,2,7,2,2.0,3.0,b'SB_8_ShortA.png',2463.478212770984,73904.34638312952,73904,2463.4666666666667
123,2463.496489,73904.89467000001,73904,2463.4666666666667,2463.996416,73919.89248,73919,2463.9666666666667,2466.02978925,73980.89367749999,73980,2466.0,1.1208884408624726,3,1,6,2,1.0,2.0,b'HB_59_LongA.png',2467.1506776908623,74014.52033072586,74014,2467.133333333333
124,2467.1644244999998,74014.932735,74014,2467.133333333333,2467.71441125,74031.4323375,74031,2467.7,2469.7479452499997,74092.4383575,74092,2469.733333333333,1.1088464893437049,3,1,4,1,2.0,1.0,b'HB_15_ShortA.png',2470.8567917393434,74125.7037521803,74125,2470.8333333333335
125,2470.86506725,74125.95201749999,74125,2470.8333333333335,2471.38175525,74141.4526575,74141,2471.366666666667,2473.41536625,74202.46098749999,74202,2473.4,0.6851408113780053,3,2,6,2,2.0,2.0,b'HB_30_ShortA.png',2474.100507061378,74223.01521184134,74223,2474.1
126,2474.116817,74223.50451,74223,2474.1,2474.6668145,74240.004435,74240,2474.6666666666665,2476.7004165,74301.012495,74301,2476.7,1.6960701629941468,1,2,2,1,1.0,3.0,b'NB_27_LongA.png',2478.396486662994,74351.89459988981,74351,2478.366666666667
127,2478.40581725,74352.1745175,74352,2478.4,2478.9389902499997,74368.1697075,74368,2478.9333333333334,2480.9724444999997,74429.17333499998,74429,2480.9666666666667,0.653144589268777,2,2,7,2,2.0,3.0,b'SB_19_ShortA.png',2481.6255890892685,74448.76767267805,74448,2481.6
128,2481.637834,74449.13502,74449,2481.633333333333,2482.2376449999997,74467.12934999999,74467,2482.233333333333,2484.2712635,74528.137905,74528,2484.266666666667,2.1073660530673806,3,2,7,2,2.0,3.0,b'HB_51_LongA.png',2486.378629553067,74591.35888659202,74591,2486.366666666667
129,2486.387809,74591.63427,74591,2486.366666666667,2486.95433025,74608.6299075,74608,2486.9333333333334,2488.9877675,74669.63302499999,74669,2488.9666666666667,1.4741600736870168,3,1,4,1,2.0,1.0,b'HB_44_ShortA.png',2490.461927573687,74713.85782721061,74713,2490.4333333333334
130,2490.474393,74714.23179,74714,2490.4666666666667,2491.04105675,74731.2317025,74731,2491.0333333333333,2493.07465425,74792.2396275,74792,2493.0666666666666,1.950760705753055,3,2,6,2,2.0,2.0,b'HB_27_ShortA.png',2495.025414955753,74850.7624486726,74850,2495.0
131,2495.0292385,74850.877155,74850,2495.0,2495.612511,74868.37533,74868,2495.6,2497.646096,74929.38288,74929,2497.633333333333,0.6610924971464556,3,1,3,1,2.0,2.0,b'HB_58_ShortA.png',2498.3071884971464,74949.2156549144,74949,2498.3
132,2498.3210765,74949.632295,74949,2498.3,2498.83764825,74965.12944749999,74965,2498.8333333333335,2500.87139325,75026.1417975,75026,2500.866666666667,1.7278706635570416,1,1,7,2,1.0,3.0,b'NB_28_ShortA.png',2502.599263913557,75077.97791740671,75077,2502.5666666666666
133,2502.6121317499997,75078.36395249999,75078,2502.6,2503.1120535,75093.361605,75093,2503.1,2505.14568875,75154.37066249999,75154,2505.133333333333,1.7374505730040255,1,2,2,1,1.0,3.0,b'NB_20_ShortA.png',2506.883139323004,75206.49417969011,75206,2506.866666666667
134,2506.89229325,75206.7687975,75206,2506.866666666667,2507.45884825,75223.7654475,75223,2507.4333333333334,2509.49236975,75284.7710925,75284,2509.4666666666667,1.6590252014702855,1,2,2,1,1.0,3.0,b'NB_1_LongA.png',2511.15139495147,75334.5418485441,75334,2511.133333333333
135,2511.1676292499997,75335.0288775,75335,2511.1666666666665,2511.6842899999997,75350.5287,75350,2511.6666666666665,2513.718016,75411.54048,75411,2513.7,1.031819231895497,3,1,5,2,1.0,1.0,b'HB_12_ShortA.png',2514.7498352318953,75442.49505695686,75442,2514.733333333333
136,2514.75925525,75442.7776575,75442,2514.733333333333,2515.30923125,75459.27693749999,75459,2515.3,2517.34266475,75520.2799425,75520,2517.3333333333335,2.0391642587310344,3,1,2,1,2.0,3.0,b'HB_13_ShortA.png',2519.381829008731,75581.45487026194,75581,2519.366666666667
137,2519.38381675,75581.5145025,75581,2519.366666666667,2519.8671127499997,75596.0133825,75596,2519.866666666667,2521.90065525,75657.0196575,75657,2521.9,0.1485389749359456,3,2,2,1,1.0,3.0,b'HB_28_LongA.png',2522.049194224936,75661.47582674808,75661,2522.0333333333333
138,2522.05412425,75661.6237275,75661,2522.0333333333333,2522.63729475,75679.1188425,75679,2522.633333333333,2524.67078375,75740.1235125,75740,2524.6666666666665,1.1142485108957771,3,2,7,2,2.0,3.0,b'HB_10_LongA.png',2525.7850322608956,75773.55096782687,75773,2525.766666666667
139,2525.791397,75773.74191,75773,2525.766666666667,2526.3579219999997,75790.73765999998,75790,2526.3333333333335,2528.39159475,75851.7478425,75851,2528.366666666667,1.0149199049101298,2,2,7,2,2.0,3.0,b'SB_7_LongA.png',2529.40651465491,75882.1954396473,75882,2529.4
140,2529.418487,75882.55460999999,75882,2529.4,2530.001739,75900.05217,75900,2530.0,2532.0352355,75961.057065,75961,2532.0333333333333,0.4812997566532431,1,2,2,1,1.0,3.0,b'NB_25_ShortA.png',2532.5165352566532,75975.4960576996,75975,2532.5
141,2532.51918825,75975.5756475,75975,2532.5,2533.0857742499998,75992.57322749999,75992,2533.0666666666666,2535.1192745,76053.578235,76053,2535.1,2.176698100985959,1,2,3,1,1.0,2.0,b'NB_23_ShortA.png',2537.295972600986,76118.87917802957,76118,2537.266666666667
142,2537.3047604999997,76119.14281499998,76119,2537.3,2537.8214304999997,76134.64291499999,76134,2537.8,2539.8549405,76195.648215,76195,2539.8333333333335,0.8456832636602485,2,2,6,2,2.0,2.0,b'SB_58_LongA.png',2540.70062376366,76221.0187129098,76221,2540.7
143,2540.7033284999998,76221.099855,76221,2540.7,2541.2365919999997,76237.09775999999,76237,2541.233333333333,2543.27020925,76298.1062775,76298,2543.266666666667,1.30535405705632,3,2,6,2,2.0,2.0,b'HB_5_LongA.png',2544.575563307056,76337.26689921168,76337,2544.5666666666666
144,2544.57885825,76337.36574749999,76337,2544.5666666666666,2545.178723,76355.36169,76355,2545.1666666666665,2547.2122382499997,76416.36714749999,76416,2547.2,-1.7172052536516276,1,1,2,1,2.0,3.0,b'NB_6_ShortA.png',2545.495032996348,76364.85098989044,76364,2545.4666666666667
145,2545.5041375,76365.124125,76365,2545.5,2546.0540555,76381.621665,76381,2546.0333333333333,2548.0873994999997,76442.62198499999,76442,2548.0666666666666,-0.0747965170594398,2,2,7,2,2.0,3.0,b'SB_22_LongA.png',2548.0126029829403,76440.37808948821,76440,2548.0
146,2548.0223355,76440.670065,76440,2548.0,2548.605596,76458.16788,76458,2548.6,2550.6598034999997,76519.794105,76519,2550.633333333333,0.6494992408461258,2,2,2,1,1.0,3.0,b'SB_26_shortA.png',2551.309302740846,76539.27908222537,76539,2551.3
147,2551.32827425,76539.8482275,76539,2551.3,2551.92813025,76557.84390749999,76557,2551.9,2553.961751,76618.85252999999,76618,2553.9333333333334,0.5356443716955255,1,1,7,2,1.0,3.0,b'NB_13_LongA.png',2554.4973953716953,76634.92186115085,76634,2554.4666666666667
148,2554.50805125,76635.2415375,76635,2554.5,2555.07472325,76652.2416975,76652,2555.0666666666666,2557.1083835,76713.251505,76713,2557.1,1.1702142326957983,1,2,2,1,1.0,3.0,b'NB_18_LongA.png',2558.2785977326957,76748.35793198088,76748,2558.266666666667
149,2558.28807675,76748.6423025,76748,2558.266666666667,2558.8046354999997,76764.139065,76764,2558.8,2560.8381114999997,76825.14334499999,76825,2560.8333333333335,0.9693149529884977,2,2,2,1,1.0,3.0,b'SB_40_LongA.png',2561.8074264529882,76854.22279358965,76854,2561.8
150,2561.8263847499998,76854.7915425,76854,2561.8,2562.3262422499997,76869.7872675,76869,2562.3,2564.359763,76930.79289,76930,2564.3333333333335,2.135927660996458,1,1,3,1,2.0,2.0,b'NB_18_ShortA.png',2566.4956906609964,76994.8707198299,76994,2566.4666666666667
151,2566.500209,76995.00627,76995,2566.5,2567.0334332499997,77011.00299749999,77011,2567.0333333333333,2569.06699,77072.0097,77072,2569.0666666666666,1.7595922590626287,3,2,7,2,2.0,3.0,b'HB_55_LongA.png',2570.8265822590624,77124.79746777187,77124,2570.8
152,2570.8404404999997,77125.213215,77125,2570.8333333333335,2571.3736295,77141.208885,77141,2571.366666666667,2573.407272,77202.21816,77202,2573.4,0.7645202917410643,1,1,2,1,2.0,3.0,b'NB_24_LongA.png',2574.171792291741,77225.15376875224,77225,2574.1666666666665
153,2574.1891619999997,77225.67485999998,77225,2574.1666666666665,2574.7892122499998,77243.6763675,77243,2574.766666666667,2576.8227199999997,77304.6816,77304,2576.8,1.6149163946411136,3,1,7,2,1.0,3.0,b'HB_21_ShortA.png',2578.437636394641,77353.12909183922,77353,2578.4333333333334
154,2578.4491897499997,77353.4756925,77353,2578.4333333333334,2578.98238175,77369.4714525,77369,2578.9666666666667,2581.0159074999997,77430.477225,77430,2581.0,0.41161460263538174,3,2,2,1,1.0,3.0,b'HB_45_LongA.png',2581.427522102635,77442.82566307906,77442,2581.4
155,2581.44085125,77443.2255375,77443,2581.4333333333334,2581.99074975,77459.72249249999,77459,2581.9666666666667,2584.0243432499997,77520.73029749999,77520,2584.0,0.0830773932102602,2,2,6,2,2.0,2.0,b'SB_16_LongA.png',2584.10742064321,77523.2226192963,77523,2584.1
156,2584.10916425,77523.2749275,77523,2584.1,2584.659167,77539.77501,77539,2584.633333333333,2586.6928802499997,77600.7864075,77600,2586.6666666666665,0.31549035410898796,2,2,7,2,2.0,3.0,b'SB_2_LongA.png',2587.0083706041087,77610.25111812325,77610,2587.0
157,2587.011994,77610.35982,77610,2587.0,2587.52864875,77625.8594625,77625,2587.5,2589.5622532499997,77686.8675975,77686,2589.5333333333333,0.851717586581799,1,1,3,1,2.0,2.0,b'NB_10_LongA.png',2590.4139708365815,77712.41912509744,77712,2590.4
158,2590.42838425,77712.8515275,77712,2590.4,2590.9783429999998,77729.35028999999,77729,2590.9666666666667,2593.0118897499997,77790.35669249999,77790,2593.0,1.5090283942117821,1,1,5,2,1.0,1.0,b'NB_17_ShortA.png',2594.5209181442115,77835.62754432634,77835,2594.5
159,2594.5332532499997,77835.99759749998,77835,2594.5,2595.0331185,77850.993555,77850,2595.0,2597.06678625,77912.0035875,77912,2597.0666666666666,-0.12512041315130773,3,2,2,1,1.0,3.0,b'HB_24_LongA.png',2596.9416658368486,77908.24997510546,77908,2596.9333333333334
160,2596.9577034999998,77908.731105,77908,2596.9333333333334,2597.4578724999997,77923.73617499998,77923,2597.4333333333334,2599.49121225,77984.7363675,77984,2599.4666666666667,2.796798853412838,1,2,4,1,1.0,1.0,b'NB_16_ShortA.png',2602.288011103413,78068.64033310239,78068,2602.266666666667
161,2602.3029815,78069.089445,78069,2602.3,2602.8195605,78084.586815,78084,2602.8,2604.8531795,78145.595385,78145,2604.8333333333335,1.44521338940649,2,1,7,2,1.0,3.0,b'SB_51_ShortA.png',2606.2983928894064,78188.95178668218,78188,2606.266666666667
162,2606.3065345,78189.196035,78189,2606.3,2606.82321225,78204.6963675,78204,2606.8,2608.8568447499997,78265.70534249999,78265,2608.8333333333335,1.637222272613144,3,1,5,2,1.0,1.0,b'HB_42_LongA.png',2610.494067022613,78314.82201067838,78314,2610.4666666666667
163,2610.5052997499997,78315.15899249999,78315,2610.5,2610.98856075,78329.6568225,78329,2610.9666666666667,2613.0221579999998,78390.66474,78390,2613.0,1.1624197316305072,2,2,7,2,2.0,3.0,b'SB_13_ShortA.png',2614.1845777316303,78425.5373319489,78425,2614.1666666666665
164,2614.196915,78425.90745,78425,2614.1666666666665,2614.74669,78442.4007,78442,2614.733333333333,2616.78006875,78503.4020625,78503,2616.766666666667,0.9749374320035713,3,1,2,1,2.0,3.0,b'HB_3_LongA.png',2617.7550061820034,78532.65018546011,78532,2617.733333333333
165,2617.7702345,78533.107035,78533,2617.766666666667,2618.32025575,78549.6076725,78549,2618.3,2620.3538005,78610.614015,78610,2620.3333333333335,1.4635679078619432,2,2,6,2,2.0,2.0,b'SB_5_ShortA.png',2621.817368407862,78654.52105223585,78654,2621.8
166,2621.82280575,78654.6841725,78654,2621.8,2622.3060065,78669.180195,78669,2622.3,2624.3394755,78730.184265,78730,2624.3333333333335,0.21793583616818069,1,2,4,1,1.0,1.0,b'NB_3_ShortA.png',2624.557411336168,78736.72234008505,78736,2624.5333333333333
167,2624.560129,78736.80387,78736,2624.5333333333333,2625.06002775,78751.8008325,78751,2625.0333333333333,2627.09344225,78812.8032675,78812,2627.0666666666666,0.8794110484359408,1,2,2,1,1.0,3.0,b'NB_14_LongA.png',2627.972853298436,78839.18559895307,78839,2627.9666666666667
168,2627.9822455,78839.46736499999,78839,2627.9666666666667,2628.4990507499997,78854.9715225,78854,2628.4666666666667,2630.5325534999997,78915.97660499999,78915,2630.5,1.4507248781592352,3,2,4,1,1.0,1.0,b'HB_19_ShortA.png',2631.983278378159,78959.49835134477,78959,2631.9666666666667
169,2631.98759225,78959.6277675,78959,2631.9666666666667,2632.5540889999997,78976.62267,78976,2632.5333333333333,2634.587536,79037.62608,79037,2634.5666666666666,2.201105795085823,3,2,4,1,1.0,1.0,b'HB_29_LongA.png',2636.788641795086,79103.65925385257,79103,2636.766666666667
170,2636.8035407499997,79104.10622249999,79104,2636.8,2637.3534845,79120.60453499999,79120,2637.3333333333335,2639.3872885,79181.618655,79181,2639.366666666667,1.399046964588706,1,2,5,2,2.0,1.0,b'NB_23_LongA.png',2640.786335464589,79223.59006393766,79223,2640.766666666667
171,2640.78909725,79223.6729175,79223,2640.766666666667,2641.3224625,79239.673875,79239,2641.3,2643.355909,79300.67727,79300,2643.3333333333335,0.5316261041934922,2,2,7,2,2.0,3.0,b'SB_32_ShortA.png',2643.8875351041934,79316.6260531258,79316,2643.866666666667
172,2643.89562275,79316.86868249999,79316,2643.866666666667,2644.4455715,79333.367145,79333,2644.4333333333334,2646.47905375,79394.37161249999,79394,2646.4666666666667,-0.20364064400018833,2,2,2,1,1.0,3.0,b'SB_46_LongA.png',2646.2754131059996,79388.26239317999,79388,2646.266666666667
173,2646.28694975,79388.6084925,79388,2646.266666666667,2646.85341875,79405.6025625,79405,2646.8333333333335,2648.8869462499997,79466.60838749999,79466,2648.866666666667,0.7525106274206337,2,2,4,1,1.0,1.0,b'SB_33_ShortA.png',2649.6394568774203,79489.18370632261,79489,2649.633333333333
174,2649.6498444999997,79489.49533499999,79489,2649.633333333333,2650.1998077499998,79505.99423249999,79505,2650.1666666666665,2652.23347725,79567.00431749999,79567,2652.233333333333,1.562456915875373,1,2,2,1,1.0,3.0,b'NB_15_LongA.png',2653.795934165875,79613.87802497626,79613,2653.766666666667
175,2653.801365,79614.04095,79614,2653.8,2654.3678852499997,79631.03655749999,79631,2654.366666666667,2656.4015394999997,79692.04618499998,79692,2656.4,1.2198414863032667,1,2,3,1,1.0,2.0,b'NB_29_LongA.png',2657.621380986303,79728.64142958909,79728,2657.6
176,2657.6317489999997,79728.95246999999,79728,2657.6,2658.16500925,79744.9502775,79744,2658.133333333333,2660.19856275,79805.9568825,79805,2660.1666666666665,0.7076022242727049,2,2,5,2,2.0,1.0,b'SB_37_ShortA.png',2660.9061649742725,79827.18494922818,79827,2660.9
177,2660.91741875,79827.52256249999,79827,2660.9,2661.4840875,79844.522625,79844,2661.4666666666667,2663.5175415,79905.526245,79905,2663.5,1.7580532763458905,1,1,5,2,1.0,1.0,b'NB_28_LongA.png',2665.2755947763458,79958.26784329038,79958,2665.266666666667
178,2665.2898862499997,79958.69658749999,79958,2665.266666666667,2665.823057,79974.69171,79974,2665.8,2667.85648825,80035.6946475,80035,2667.8333333333335,-0.45151029693988676,1,1,4,1,2.0,1.0,b'NB_6_LongA.png',2667.40497795306,80022.1493385918,80022,2667.4
179,2667.4839712499997,80024.5191375,80024,2667.4666666666667,2668.05967075,80041.7901225,80041,2668.0333333333333,2670.0668885,80102.006655,80102,2670.0666666666666,1.0642740932580637,2,1,5,2,1.0,1.0,b'SB_30_ShortA.png',2671.131162593258,80133.93487779774,80133,2671.1
180,2671.1706934999997,80135.120805,80135,2671.1666666666665,2671.7691287499997,80153.0738625,80153,2671.766666666667,2673.8221612499997,80214.6648375,80214,2673.8,1.435779068604461,2,2,3,1,1.0,2.0,b'SB_30_LongA.png',2675.257940318604,80257.73820955813,80257,2675.233333333333
